[
  {
    "rt": 158,
    "stimulus": "Welcome to the experiment. Press any key to begin.",
    "key_press": 13,
    "trial_type": "html-keyboard-response",
    "trial_index": 0,
    "time_elapsed": 160,
    "internal_node_id": "0.0-0.0"
  },
  {
    "rt": 118,
    "stimulus": "<p>In this experiment, three images of people will appear in the center of the screen.</p><p>Your task is to rank these images based on how <strong>real</strong> you think they are.<p>The ranking level is between 1 to 3, with <strong>1</strong> representing the most realistic one and <strong>3</strong> the least realistic one.</p><p>There are totally 100 groups of images. The time to rank is not limited. </p> <p>When you finish one group, click the <strong>Continue</strong> button to continue to the next one.</p><p>At the end of the experiment, your name and age will be asked and recorded.</p>",
    "key_press": 13,
    "trial_type": "html-keyboard-response",
    "trial_index": 1,
    "time_elapsed": 280,
    "internal_node_id": "0.0-1.0"
  },
  {
    "rt": null,
    "stimulus": "<div style=\"font-size:60px;\"></div>",
    "key_press": null,
    "trial_type": "html-keyboard-response",
    "trial_index": 2,
    "time_elapsed": 884,
    "internal_node_id": "0.0-2.0"
  },
  {
    "src": [
      "ce/200195_ce.png",
      "gl/200195_gl.png",
      "ours/200195_ours.png"
    ],
    "rank_data": [
      1,
      0,
      2
    ],
    "rank_result": [
      "gl/200195_gl.png",
      "ce/200195_ce.png",
      "ours/200195_ours.png"
    ],
    "rt": 3500,
    "trial_type": "image-rank",
    "trial_index": 3,
    "time_elapsed": 4384,
    "internal_node_id": "0.0-3.0"
  },
  {
    "rt": 4958,
    "responses": "{\"Q0\":\"wz\"}",
    "trial_type": "survey-text",
    "trial_index": 4,
    "time_elapsed": 9343,
    "internal_node_id": "0.0-4.0"
  },
  {
    "rt": 2175,
    "responses": "{\"Q0\":\"23\"}",
    "trial_type": "survey-text",
    "trial_index": 5,
    "time_elapsed": 11518,
    "internal_node_id": "0.0-5.0"
  },
  {
    "rt": 952,
    "stimulus": "<div style=\"font-size:15px;\">You have reached the end of the experiment! Press any key to finish.</div>",
    "key_press": 13,
    "trial_type": "html-keyboard-response",
    "trial_index": 6,
    "time_elapsed": 12471,
    "internal_node_id": "0.0-6.0"
  }
]