[{
    "rt": 3002,
    "stimulus": "Welcome to the experiment. Press any key to begin.",
    "key_press": 13,
    "trial_type": "html-keyboard-response",
    "trial_index": 0,
    "time_elapsed": 3004,
    "internal_node_id": "0.0-0.0"
}, {
    "rt": 995,
    "stimulus": "<p>In this experiment, three images of people will appear in the center of the screen.</p><p>Your task is to rank these images based on how <strong>real</strong> you think they are.<p>The ranking level is between 1 to 3, with <strong>1</strong> representing the most realistic one and <strong>3</strong> the least realistic one.</p><p>There are totally 100 groups of images. The time to rank is not limited. </p> <p>When you finish one group, click the <strong>Continue</strong> button to continue to the next one.</p><p>At the end of the experiment, your name and age will be asked and recorded.</p>",
    "key_press": 13,
    "trial_type": "html-keyboard-response",
    "trial_index": 1,
    "time_elapsed": 4001,
    "internal_node_id": "0.0-1.0"
}, {
    "rt": null,
    "stimulus": "<div style=\"font-size:60px;\"></div>",
    "key_press": null,
    "trial_type": "html-keyboard-response",
    "trial_index": 2,
    "time_elapsed": 4606,
    "internal_node_id": "0.0-2.0"
}, {
    "src": ["ce/060962_ce.png", "gl/060962_gl.png", "ours/060962_ours.png"],
    "rank_data": [2, 1, 0],
    "rank_result": ["ours/060962_ours.png", "gl/060962_gl.png", "ce/060962_ce.png"],
    "rt": 8093,
    "trial_type": "image-rank",
    "trial_index": 3,
    "time_elapsed": 12700,
    "internal_node_id": "0.0-3.0"
}, {
    "src": ["gl/198853_gl.png", "ours/198853_ours.png", "ce/198853_ce.png"],
    "rank_data": [2, 0, 1],
    "rank_result": ["ours/198853_ours.png", "ce/198853_ce.png", "gl/198853_gl.png"],
    "rt": 5626,
    "trial_type": "image-rank",
    "trial_index": 4,
    "time_elapsed": 18328,
    "internal_node_id": "0.0-4.0"
}, {
    "src": ["gl/186708_gl.png", "ours/186708_ours.png", "ce/186708_ce.png"],
    "rank_data": [1, 0, 2],
    "rank_result": ["ours/186708_ours.png", "gl/186708_gl.png", "ce/186708_ce.png"],
    "rt": 7518,
    "trial_type": "image-rank",
    "trial_index": 5,
    "time_elapsed": 25846,
    "internal_node_id": "0.0-5.0"
}, {
    "src": ["gl/181529_gl.png", "ce/181529_ce.png", "ours/181529_ours.png"],
    "rank_data": [1, 2, 0],
    "rank_result": ["ours/181529_ours.png", "gl/181529_gl.png", "ce/181529_ce.png"],
    "rt": 7481,
    "trial_type": "image-rank",
    "trial_index": 6,
    "time_elapsed": 33328,
    "internal_node_id": "0.0-6.0"
}, {
    "src": ["ours/122884_ours.png", "ce/122884_ce.png", "gl/122884_gl.png"],
    "rank_data": [0, 1, 2],
    "rank_result": ["ours/122884_ours.png", "ce/122884_ce.png", "gl/122884_gl.png"],
    "rt": 8833,
    "trial_type": "image-rank",
    "trial_index": 7,
    "time_elapsed": 42163,
    "internal_node_id": "0.0-7.0"
}, {
    "src": ["ce/071369_ce.png", "ours/071369_ours.png", "gl/071369_gl.png"],
    "rank_data": [1, 0, 2],
    "rank_result": ["ours/071369_ours.png", "ce/071369_ce.png", "gl/071369_gl.png"],
    "rt": 6633,
    "trial_type": "image-rank",
    "trial_index": 8,
    "time_elapsed": 48797,
    "internal_node_id": "0.0-8.0"
}, {
    "src": ["gl/004892_gl.png", "ce/004892_ce.png", "ours/004892_ours.png"],
    "rank_data": [1, 2, 0],
    "rank_result": ["ours/004892_ours.png", "gl/004892_gl.png", "ce/004892_ce.png"],
    "rt": 12316,
    "trial_type": "image-rank",
    "trial_index": 9,
    "time_elapsed": 61115,
    "internal_node_id": "0.0-9.0"
}, {
    "src": ["ours/151211_ours.png", "gl/151211_gl.png", "ce/151211_ce.png"],
    "rank_data": [0, 1, 2],
    "rank_result": ["ours/151211_ours.png", "gl/151211_gl.png", "ce/151211_ce.png"],
    "rt": 5253,
    "trial_type": "image-rank",
    "trial_index": 10,
    "time_elapsed": 66370,
    "internal_node_id": "0.0-10.0"
}, {
    "src": ["ours/055747_ours.png", "ce/055747_ce.png", "gl/055747_gl.png"],
    "rank_data": [0, 2, 1],
    "rank_result": ["ours/055747_ours.png", "gl/055747_gl.png", "ce/055747_ce.png"],
    "rt": 7347,
    "trial_type": "image-rank",
    "trial_index": 11,
    "time_elapsed": 73718,
    "internal_node_id": "0.0-11.0"
}, {
    "src": ["ours/199938_ours.png", "ce/199938_ce.png", "gl/199938_gl.png"],
    "rank_data": [1, 2, 0],
    "rank_result": ["gl/199938_gl.png", "ours/199938_ours.png", "ce/199938_ce.png"],
    "rt": 5711,
    "trial_type": "image-rank",
    "trial_index": 12,
    "time_elapsed": 79430,
    "internal_node_id": "0.0-12.0"
}, {
    "src": ["ours/179052_ours.png", "gl/179052_gl.png", "ce/179052_ce.png"],
    "rank_data": [0, 2, 1],
    "rank_result": ["ours/179052_ours.png", "ce/179052_ce.png", "gl/179052_gl.png"],
    "rt": 4623,
    "trial_type": "image-rank",
    "trial_index": 13,
    "time_elapsed": 84054,
    "internal_node_id": "0.0-13.0"
}, {
    "src": ["gl/201978_gl.png", "ours/201978_ours.png", "ce/201978_ce.png"],
    "rank_data": [2, 0, 1],
    "rank_result": ["ours/201978_ours.png", "ce/201978_ce.png", "gl/201978_gl.png"],
    "rt": 5844,
    "trial_type": "image-rank",
    "trial_index": 14,
    "time_elapsed": 89898,
    "internal_node_id": "0.0-14.0"
}, {
    "src": ["gl/031028_gl.png", "ours/031028_ours.png", "ce/031028_ce.png"],
    "rank_data": [1, 0, 2],
    "rank_result": ["ours/031028_ours.png", "gl/031028_gl.png", "ce/031028_ce.png"],
    "rt": 6588,
    "trial_type": "image-rank",
    "trial_index": 15,
    "time_elapsed": 96487,
    "internal_node_id": "0.0-15.0"
}, {
    "src": ["ce/076344_ce.png", "ours/076344_ours.png", "gl/076344_gl.png"],
    "rank_data": [2, 0, 1],
    "rank_result": ["ours/076344_ours.png", "gl/076344_gl.png", "ce/076344_ce.png"],
    "rt": 5865,
    "trial_type": "image-rank",
    "trial_index": 16,
    "time_elapsed": 102353,
    "internal_node_id": "0.0-16.0"
}, {
    "src": ["ours/197022_ours.png", "ce/197022_ce.png", "gl/197022_gl.png"],
    "rank_data": [0, 2, 1],
    "rank_result": ["ours/197022_ours.png", "gl/197022_gl.png", "ce/197022_ce.png"],
    "rt": 4914,
    "trial_type": "image-rank",
    "trial_index": 17,
    "time_elapsed": 107267,
    "internal_node_id": "0.0-17.0"
}, {
    "src": ["ours/068696_ours.png", "gl/068696_gl.png", "ce/068696_ce.png"],
    "rank_data": [0, 2, 1],
    "rank_result": ["ours/068696_ours.png", "ce/068696_ce.png", "gl/068696_gl.png"],
    "rt": 9418,
    "trial_type": "image-rank",
    "trial_index": 18,
    "time_elapsed": 116687,
    "internal_node_id": "0.0-18.0"
}, {
    "src": ["ours/140295_ours.png", "gl/140295_gl.png", "ce/140295_ce.png"],
    "rank_data": [0, 1, 2],
    "rank_result": ["ours/140295_ours.png", "gl/140295_gl.png", "ce/140295_ce.png"],
    "rt": 13856,
    "trial_type": "image-rank",
    "trial_index": 19,
    "time_elapsed": 130543,
    "internal_node_id": "0.0-19.0"
}, {
    "src": ["ce/177061_ce.png", "gl/177061_gl.png", "ours/177061_ours.png"],
    "rank_data": [2, 0, 1],
    "rank_result": ["gl/177061_gl.png", "ours/177061_ours.png", "ce/177061_ce.png"],
    "rt": 7476,
    "trial_type": "image-rank",
    "trial_index": 20,
    "time_elapsed": 138020,
    "internal_node_id": "0.0-20.0"
}, {
    "src": ["gl/068390_gl.png", "ce/068390_ce.png", "ours/068390_ours.png"],
    "rank_data": [0, 1, 2],
    "rank_result": ["gl/068390_gl.png", "ce/068390_ce.png", "ours/068390_ours.png"],
    "rt": 7050,
    "trial_type": "image-rank",
    "trial_index": 21,
    "time_elapsed": 145070,
    "internal_node_id": "0.0-21.0"
}, {
    "src": ["ce/010132_ce.png", "ours/010132_ours.png", "gl/010132_gl.png"],
    "rank_data": [2, 0, 1],
    "rank_result": ["ours/010132_ours.png", "gl/010132_gl.png", "ce/010132_ce.png"],
    "rt": 7318,
    "trial_type": "image-rank",
    "trial_index": 22,
    "time_elapsed": 152390,
    "internal_node_id": "0.0-22.0"
}, {
    "src": ["ours/050796_ours.png", "ce/050796_ce.png", "gl/050796_gl.png"],
    "rank_data": [0, 1, 2],
    "rank_result": ["ours/050796_ours.png", "ce/050796_ce.png", "gl/050796_gl.png"],
    "rt": 4874,
    "trial_type": "image-rank",
    "trial_index": 23,
    "time_elapsed": 157266,
    "internal_node_id": "0.0-23.0"
}, {
    "src": ["ours/192801_ours.png", "gl/192801_gl.png", "ce/192801_ce.png"],
    "rank_data": [0, 2, 1],
    "rank_result": ["ours/192801_ours.png", "ce/192801_ce.png", "gl/192801_gl.png"],
    "rt": 6052,
    "trial_type": "image-rank",
    "trial_index": 24,
    "time_elapsed": 163318,
    "internal_node_id": "0.0-24.0"
}, {
    "src": ["ours/007430_ours.png", "gl/007430_gl.png", "ce/007430_ce.png"],
    "rank_data": [0, 1, 2],
    "rank_result": ["ours/007430_ours.png", "gl/007430_gl.png", "ce/007430_ce.png"],
    "rt": 9614,
    "trial_type": "image-rank",
    "trial_index": 25,
    "time_elapsed": 172932,
    "internal_node_id": "0.0-25.0"
}, {
    "src": ["ce/189515_ce.png", "ours/189515_ours.png", "gl/189515_gl.png"],
    "rank_data": [0, 1, 2],
    "rank_result": ["ce/189515_ce.png", "ours/189515_ours.png", "gl/189515_gl.png"],
    "rt": 6751,
    "trial_type": "image-rank",
    "trial_index": 26,
    "time_elapsed": 179685,
    "internal_node_id": "0.0-26.0"
}, {
    "src": ["ce/180808_ce.png", "ours/180808_ours.png", "gl/180808_gl.png"],
    "rank_data": [2, 0, 1],
    "rank_result": ["ours/180808_ours.png", "gl/180808_gl.png", "ce/180808_ce.png"],
    "rt": 8794,
    "trial_type": "image-rank",
    "trial_index": 27,
    "time_elapsed": 188479,
    "internal_node_id": "0.0-27.0"
}, {
    "src": ["ce/117113_ce.png", "ours/117113_ours.png", "gl/117113_gl.png"],
    "rank_data": [1, 0, 2],
    "rank_result": ["ours/117113_ours.png", "ce/117113_ce.png", "gl/117113_gl.png"],
    "rt": 5512,
    "trial_type": "image-rank",
    "trial_index": 28,
    "time_elapsed": 193991,
    "internal_node_id": "0.0-28.0"
}, {
    "src": ["gl/173531_gl.png", "ours/173531_ours.png", "ce/173531_ce.png"],
    "rank_data": [1, 0, 2],
    "rank_result": ["ours/173531_ours.png", "gl/173531_gl.png", "ce/173531_ce.png"],
    "rt": 4663,
    "trial_type": "image-rank",
    "trial_index": 29,
    "time_elapsed": 198655,
    "internal_node_id": "0.0-29.0"
}, {
    "src": ["ours/061920_ours.png", "ce/061920_ce.png", "gl/061920_gl.png"],
    "rank_data": [0, 1, 2],
    "rank_result": ["ours/061920_ours.png", "ce/061920_ce.png", "gl/061920_gl.png"],
    "rt": 4301,
    "trial_type": "image-rank",
    "trial_index": 30,
    "time_elapsed": 202958,
    "internal_node_id": "0.0-30.0"
}, {
    "src": ["ours/006467_ours.png", "ce/006467_ce.png", "gl/006467_gl.png"],
    "rank_data": [0, 2, 1],
    "rank_result": ["ours/006467_ours.png", "gl/006467_gl.png", "ce/006467_ce.png"],
    "rt": 5331,
    "trial_type": "image-rank",
    "trial_index": 31,
    "time_elapsed": 208289,
    "internal_node_id": "0.0-31.0"
}, {
    "src": ["ours/103625_ours.png", "gl/103625_gl.png", "ce/103625_ce.png"],
    "rank_data": [0, 2, 1],
    "rank_result": ["ours/103625_ours.png", "ce/103625_ce.png", "gl/103625_gl.png"],
    "rt": 3911,
    "trial_type": "image-rank",
    "trial_index": 32,
    "time_elapsed": 212202,
    "internal_node_id": "0.0-32.0"
}, {
    "src": ["ce/089783_ce.png", "gl/089783_gl.png", "ours/089783_ours.png"],
    "rank_data": [2, 1, 0],
    "rank_result": ["ours/089783_ours.png", "gl/089783_gl.png", "ce/089783_ce.png"],
    "rt": 4435,
    "trial_type": "image-rank",
    "trial_index": 33,
    "time_elapsed": 216639,
    "internal_node_id": "0.0-33.0"
}, {
    "src": ["ours/010022_ours.png", "ce/010022_ce.png", "gl/010022_gl.png"],
    "rank_data": [0, 2, 1],
    "rank_result": ["ours/010022_ours.png", "gl/010022_gl.png", "ce/010022_ce.png"],
    "rt": 6181,
    "trial_type": "image-rank",
    "trial_index": 34,
    "time_elapsed": 222820,
    "internal_node_id": "0.0-34.0"
}, {
    "src": ["gl/041133_gl.png", "ours/041133_ours.png", "ce/041133_ce.png"],
    "rank_data": [2, 0, 1],
    "rank_result": ["ours/041133_ours.png", "ce/041133_ce.png", "gl/041133_gl.png"],
    "rt": 5112,
    "trial_type": "image-rank",
    "trial_index": 35,
    "time_elapsed": 227933,
    "internal_node_id": "0.0-35.0"
}, {
    "src": ["ours/089617_ours.png", "ce/089617_ce.png", "gl/089617_gl.png"],
    "rank_data": [0, 2, 1],
    "rank_result": ["ours/089617_ours.png", "gl/089617_gl.png", "ce/089617_ce.png"],
    "rt": 5567,
    "trial_type": "image-rank",
    "trial_index": 36,
    "time_elapsed": 233500,
    "internal_node_id": "0.0-36.0"
}, {
    "src": ["ce/114764_ce.png", "ours/114764_ours.png", "gl/114764_gl.png"],
    "rank_data": [2, 0, 1],
    "rank_result": ["ours/114764_ours.png", "gl/114764_gl.png", "ce/114764_ce.png"],
    "rt": 3696,
    "trial_type": "image-rank",
    "trial_index": 37,
    "time_elapsed": 237198,
    "internal_node_id": "0.0-37.0"
}, {
    "src": ["ce/023405_ce.png", "gl/023405_gl.png", "ours/023405_ours.png"],
    "rank_data": [1, 2, 0],
    "rank_result": ["ours/023405_ours.png", "ce/023405_ce.png", "gl/023405_gl.png"],
    "rt": 5886,
    "trial_type": "image-rank",
    "trial_index": 38,
    "time_elapsed": 243085,
    "internal_node_id": "0.0-38.0"
}, {
    "src": ["gl/092971_gl.png", "ours/092971_ours.png", "ce/092971_ce.png"],
    "rank_data": [2, 0, 1],
    "rank_result": ["ours/092971_ours.png", "ce/092971_ce.png", "gl/092971_gl.png"],
    "rt": 4969,
    "trial_type": "image-rank",
    "trial_index": 39,
    "time_elapsed": 248055,
    "internal_node_id": "0.0-39.0"
}, {
    "src": ["gl/093921_gl.png", "ce/093921_ce.png", "ours/093921_ours.png"],
    "rank_data": [1, 2, 0],
    "rank_result": ["ours/093921_ours.png", "gl/093921_gl.png", "ce/093921_ce.png"],
    "rt": 4373,
    "trial_type": "image-rank",
    "trial_index": 40,
    "time_elapsed": 252429,
    "internal_node_id": "0.0-40.0"
}, {
    "src": ["ce/092362_ce.png", "gl/092362_gl.png", "ours/092362_ours.png"],
    "rank_data": [1, 2, 0],
    "rank_result": ["ours/092362_ours.png", "ce/092362_ce.png", "gl/092362_gl.png"],
    "rt": 4759,
    "trial_type": "image-rank",
    "trial_index": 41,
    "time_elapsed": 257189,
    "internal_node_id": "0.0-41.0"
}, {
    "src": ["ours/156963_ours.png", "ce/156963_ce.png", "gl/156963_gl.png"],
    "rank_data": [0, 2, 1],
    "rank_result": ["ours/156963_ours.png", "gl/156963_gl.png", "ce/156963_ce.png"],
    "rt": 4609,
    "trial_type": "image-rank",
    "trial_index": 42,
    "time_elapsed": 261799,
    "internal_node_id": "0.0-42.0"
}, {
    "src": ["gl/105303_gl.png", "ours/105303_ours.png", "ce/105303_ce.png"],
    "rank_data": [0, 1, 2],
    "rank_result": ["gl/105303_gl.png", "ours/105303_ours.png", "ce/105303_ce.png"],
    "rt": 4782,
    "trial_type": "image-rank",
    "trial_index": 43,
    "time_elapsed": 266581,
    "internal_node_id": "0.0-43.0"
}, {
    "src": ["gl/104852_gl.png", "ce/104852_ce.png", "ours/104852_ours.png"],
    "rank_data": [2, 1, 0],
    "rank_result": ["ours/104852_ours.png", "ce/104852_ce.png", "gl/104852_gl.png"],
    "rt": 5243,
    "trial_type": "image-rank",
    "trial_index": 44,
    "time_elapsed": 271826,
    "internal_node_id": "0.0-44.0"
}, {
    "src": ["gl/024808_gl.png", "ours/024808_ours.png", "ce/024808_ce.png"],
    "rank_data": [1, 0, 2],
    "rank_result": ["ours/024808_ours.png", "gl/024808_gl.png", "ce/024808_ce.png"],
    "rt": 4389,
    "trial_type": "image-rank",
    "trial_index": 45,
    "time_elapsed": 276215,
    "internal_node_id": "0.0-45.0"
}, {
    "src": ["ours/159949_ours.png", "gl/159949_gl.png", "ce/159949_ce.png"],
    "rank_data": [0, 1, 2],
    "rank_result": ["ours/159949_ours.png", "gl/159949_gl.png", "ce/159949_ce.png"],
    "rt": 4739,
    "trial_type": "image-rank",
    "trial_index": 46,
    "time_elapsed": 280956,
    "internal_node_id": "0.0-46.0"
}, {
    "src": ["ours/132411_ours.png", "gl/132411_gl.png", "ce/132411_ce.png"],
    "rank_data": [0, 1, 2],
    "rank_result": ["ours/132411_ours.png", "gl/132411_gl.png", "ce/132411_ce.png"],
    "rt": 5149,
    "trial_type": "image-rank",
    "trial_index": 47,
    "time_elapsed": 286106,
    "internal_node_id": "0.0-47.0"
}, {
    "src": ["gl/191002_gl.png", "ce/191002_ce.png", "ours/191002_ours.png"],
    "rank_data": [2, 1, 0],
    "rank_result": ["ours/191002_ours.png", "ce/191002_ce.png", "gl/191002_gl.png"],
    "rt": 4523,
    "trial_type": "image-rank",
    "trial_index": 48,
    "time_elapsed": 290630,
    "internal_node_id": "0.0-48.0"
}, {
    "src": ["gl/054259_gl.png", "ours/054259_ours.png", "ce/054259_ce.png"],
    "rank_data": [1, 0, 2],
    "rank_result": ["ours/054259_ours.png", "gl/054259_gl.png", "ce/054259_ce.png"],
    "rt": 4924,
    "trial_type": "image-rank",
    "trial_index": 49,
    "time_elapsed": 295554,
    "internal_node_id": "0.0-49.0"
}, {
    "src": ["gl/178951_gl.png", "ours/178951_ours.png", "ce/178951_ce.png"],
    "rank_data": [2, 0, 1],
    "rank_result": ["ours/178951_ours.png", "ce/178951_ce.png", "gl/178951_gl.png"],
    "rt": 4603,
    "trial_type": "image-rank",
    "trial_index": 50,
    "time_elapsed": 300158,
    "internal_node_id": "0.0-50.0"
}, {
    "src": ["ce/174392_ce.png", "gl/174392_gl.png", "ours/174392_ours.png"],
    "rank_data": [2, 1, 0],
    "rank_result": ["ours/174392_ours.png", "gl/174392_gl.png", "ce/174392_ce.png"],
    "rt": 6508,
    "trial_type": "image-rank",
    "trial_index": 51,
    "time_elapsed": 306666,
    "internal_node_id": "0.0-51.0"
}, {
    "src": ["gl/102438_gl.png", "ce/102438_ce.png", "ours/102438_ours.png"],
    "rank_data": [1, 2, 0],
    "rank_result": ["ours/102438_ours.png", "gl/102438_gl.png", "ce/102438_ce.png"],
    "rt": 6722,
    "trial_type": "image-rank",
    "trial_index": 52,
    "time_elapsed": 313388,
    "internal_node_id": "0.0-52.0"
}, {
    "src": ["ours/006639_ours.png", "ce/006639_ce.png", "gl/006639_gl.png"],
    "rank_data": [0, 2, 1],
    "rank_result": ["ours/006639_ours.png", "gl/006639_gl.png", "ce/006639_ce.png"],
    "rt": 7563,
    "trial_type": "image-rank",
    "trial_index": 53,
    "time_elapsed": 320953,
    "internal_node_id": "0.0-53.0"
}, {
    "src": ["ours/111674_ours.png", "ce/111674_ce.png", "gl/111674_gl.png"],
    "rank_data": [0, 2, 1],
    "rank_result": ["ours/111674_ours.png", "gl/111674_gl.png", "ce/111674_ce.png"],
    "rt": 6187,
    "trial_type": "image-rank",
    "trial_index": 54,
    "time_elapsed": 327141,
    "internal_node_id": "0.0-54.0"
}, {
    "src": ["ce/121975_ce.png", "gl/121975_gl.png", "ours/121975_ours.png"],
    "rank_data": [2, 1, 0],
    "rank_result": ["ours/121975_ours.png", "gl/121975_gl.png", "ce/121975_ce.png"],
    "rt": 4313,
    "trial_type": "image-rank",
    "trial_index": 55,
    "time_elapsed": 331455,
    "internal_node_id": "0.0-55.0"
}, {
    "src": ["gl/159266_gl.png", "ce/159266_ce.png", "ours/159266_ours.png"],
    "rank_data": [1, 2, 0],
    "rank_result": ["ours/159266_ours.png", "gl/159266_gl.png", "ce/159266_ce.png"],
    "rt": 7533,
    "trial_type": "image-rank",
    "trial_index": 56,
    "time_elapsed": 338989,
    "internal_node_id": "0.0-56.0"
}, {
    "src": ["ce/173033_ce.png", "gl/173033_gl.png", "ours/173033_ours.png"],
    "rank_data": [2, 0, 1],
    "rank_result": ["gl/173033_gl.png", "ours/173033_ours.png", "ce/173033_ce.png"],
    "rt": 6974,
    "trial_type": "image-rank",
    "trial_index": 57,
    "time_elapsed": 345963,
    "internal_node_id": "0.0-57.0"
}, {
    "src": ["gl/148996_gl.png", "ce/148996_ce.png", "ours/148996_ours.png"],
    "rank_data": [2, 1, 0],
    "rank_result": ["ours/148996_ours.png", "ce/148996_ce.png", "gl/148996_gl.png"],
    "rt": 5181,
    "trial_type": "image-rank",
    "trial_index": 58,
    "time_elapsed": 351146,
    "internal_node_id": "0.0-58.0"
}, {
    "src": ["gl/037651_gl.png", "ours/037651_ours.png", "ce/037651_ce.png"],
    "rank_data": [1, 0, 2],
    "rank_result": ["ours/037651_ours.png", "gl/037651_gl.png", "ce/037651_ce.png"],
    "rt": 4687,
    "trial_type": "image-rank",
    "trial_index": 59,
    "time_elapsed": 355834,
    "internal_node_id": "0.0-59.0"
}, {
    "src": ["ours/139811_ours.png", "gl/139811_gl.png", "ce/139811_ce.png"],
    "rank_data": [0, 1, 2],
    "rank_result": ["ours/139811_ours.png", "gl/139811_gl.png", "ce/139811_ce.png"],
    "rt": 8580,
    "trial_type": "image-rank",
    "trial_index": 60,
    "time_elapsed": 364415,
    "internal_node_id": "0.0-60.0"
}, {
    "src": ["ce/172983_ce.png", "ours/172983_ours.png", "gl/172983_gl.png"],
    "rank_data": [1, 0, 2],
    "rank_result": ["ours/172983_ours.png", "ce/172983_ce.png", "gl/172983_gl.png"],
    "rt": 4550,
    "trial_type": "image-rank",
    "trial_index": 61,
    "time_elapsed": 368965,
    "internal_node_id": "0.0-61.0"
}, {
    "src": ["ours/118834_ours.png", "gl/118834_gl.png", "ce/118834_ce.png"],
    "rank_data": [0, 1, 2],
    "rank_result": ["ours/118834_ours.png", "gl/118834_gl.png", "ce/118834_ce.png"],
    "rt": 4382,
    "trial_type": "image-rank",
    "trial_index": 62,
    "time_elapsed": 373347,
    "internal_node_id": "0.0-62.0"
}, {
    "src": ["ours/096270_ours.png", "gl/096270_gl.png", "ce/096270_ce.png"],
    "rank_data": [0, 1, 2],
    "rank_result": ["ours/096270_ours.png", "gl/096270_gl.png", "ce/096270_ce.png"],
    "rt": 4552,
    "trial_type": "image-rank",
    "trial_index": 63,
    "time_elapsed": 377899,
    "internal_node_id": "0.0-63.0"
}, {
    "src": ["gl/151091_gl.png", "ce/151091_ce.png", "ours/151091_ours.png"],
    "rank_data": [1, 2, 0],
    "rank_result": ["ours/151091_ours.png", "gl/151091_gl.png", "ce/151091_ce.png"],
    "rt": 5900,
    "trial_type": "image-rank",
    "trial_index": 64,
    "time_elapsed": 383799,
    "internal_node_id": "0.0-64.0"
}, {
    "src": ["ours/025572_ours.png", "ce/025572_ce.png", "gl/025572_gl.png"],
    "rank_data": [0, 1, 2],
    "rank_result": ["ours/025572_ours.png", "ce/025572_ce.png", "gl/025572_gl.png"],
    "rt": 5021,
    "trial_type": "image-rank",
    "trial_index": 65,
    "time_elapsed": 388822,
    "internal_node_id": "0.0-65.0"
}, {
    "src": ["ours/066565_ours.png", "ce/066565_ce.png", "gl/066565_gl.png"],
    "rank_data": [0, 1, 2],
    "rank_result": ["ours/066565_ours.png", "ce/066565_ce.png", "gl/066565_gl.png"],
    "rt": 7731,
    "trial_type": "image-rank",
    "trial_index": 66,
    "time_elapsed": 396554,
    "internal_node_id": "0.0-66.0"
}, {
    "src": ["ce/170154_ce.png", "gl/170154_gl.png", "ours/170154_ours.png"],
    "rank_data": [2, 1, 0],
    "rank_result": ["ours/170154_ours.png", "gl/170154_gl.png", "ce/170154_ce.png"],
    "rt": 4947,
    "trial_type": "image-rank",
    "trial_index": 67,
    "time_elapsed": 401502,
    "internal_node_id": "0.0-67.0"
}, {
    "src": ["gl/175012_gl.png", "ours/175012_ours.png", "ce/175012_ce.png"],
    "rank_data": [2, 0, 1],
    "rank_result": ["ours/175012_ours.png", "ce/175012_ce.png", "gl/175012_gl.png"],
    "rt": 5518,
    "trial_type": "image-rank",
    "trial_index": 68,
    "time_elapsed": 407020,
    "internal_node_id": "0.0-68.0"
}, {
    "src": ["ours/173724_ours.png", "ce/173724_ce.png", "gl/173724_gl.png"],
    "rank_data": [0, 2, 1],
    "rank_result": ["ours/173724_ours.png", "gl/173724_gl.png", "ce/173724_ce.png"],
    "rt": 4292,
    "trial_type": "image-rank",
    "trial_index": 69,
    "time_elapsed": 411314,
    "internal_node_id": "0.0-69.0"
}, {
    "src": ["ours/172944_ours.png", "ce/172944_ce.png", "gl/172944_gl.png"],
    "rank_data": [0, 1, 2],
    "rank_result": ["ours/172944_ours.png", "ce/172944_ce.png", "gl/172944_gl.png"],
    "rt": 4501,
    "trial_type": "image-rank",
    "trial_index": 70,
    "time_elapsed": 415817,
    "internal_node_id": "0.0-70.0"
}, {
    "src": ["ce/136398_ce.png", "ours/136398_ours.png", "gl/136398_gl.png"],
    "rank_data": [1, 0, 2],
    "rank_result": ["ours/136398_ours.png", "ce/136398_ce.png", "gl/136398_gl.png"],
    "rt": 7649,
    "trial_type": "image-rank",
    "trial_index": 71,
    "time_elapsed": 423466,
    "internal_node_id": "0.0-71.0"
}, {
    "src": ["ce/199139_ce.png", "ours/199139_ours.png", "gl/199139_gl.png"],
    "rank_data": [1, 0, 2],
    "rank_result": ["ours/199139_ours.png", "ce/199139_ce.png", "gl/199139_gl.png"],
    "rt": 5201,
    "trial_type": "image-rank",
    "trial_index": 72,
    "time_elapsed": 428668,
    "internal_node_id": "0.0-72.0"
}, {
    "src": ["ce/137939_ce.png", "gl/137939_gl.png", "ours/137939_ours.png"],
    "rank_data": [2, 1, 0],
    "rank_result": ["ours/137939_ours.png", "gl/137939_gl.png", "ce/137939_ce.png"],
    "rt": 6556,
    "trial_type": "image-rank",
    "trial_index": 73,
    "time_elapsed": 435225,
    "internal_node_id": "0.0-73.0"
}, {
    "src": ["ce/142437_ce.png", "ours/142437_ours.png", "gl/142437_gl.png"],
    "rank_data": [2, 0, 1],
    "rank_result": ["ours/142437_ours.png", "gl/142437_gl.png", "ce/142437_ce.png"],
    "rt": 6375,
    "trial_type": "image-rank",
    "trial_index": 74,
    "time_elapsed": 441601,
    "internal_node_id": "0.0-74.0"
}, {
    "src": ["ce/189850_ce.png", "gl/189850_gl.png", "ours/189850_ours.png"],
    "rank_data": [1, 2, 0],
    "rank_result": ["ours/189850_ours.png", "ce/189850_ce.png", "gl/189850_gl.png"],
    "rt": 5545,
    "trial_type": "image-rank",
    "trial_index": 75,
    "time_elapsed": 447147,
    "internal_node_id": "0.0-75.0"
}, {
    "src": ["ce/190875_ce.png", "gl/190875_gl.png", "ours/190875_ours.png"],
    "rank_data": [2, 1, 0],
    "rank_result": ["ours/190875_ours.png", "gl/190875_gl.png", "ce/190875_ce.png"],
    "rt": 3941,
    "trial_type": "image-rank",
    "trial_index": 76,
    "time_elapsed": 451089,
    "internal_node_id": "0.0-76.0"
}, {
    "src": ["ours/132129_ours.png", "gl/132129_gl.png", "ce/132129_ce.png"],
    "rank_data": [0, 1, 2],
    "rank_result": ["ours/132129_ours.png", "gl/132129_gl.png", "ce/132129_ce.png"],
    "rt": 4172,
    "trial_type": "image-rank",
    "trial_index": 77,
    "time_elapsed": 455262,
    "internal_node_id": "0.0-77.0"
}, {
    "src": ["ours/075216_ours.png", "ce/075216_ce.png", "gl/075216_gl.png"],
    "rank_data": [0, 1, 2],
    "rank_result": ["ours/075216_ours.png", "ce/075216_ce.png", "gl/075216_gl.png"],
    "rt": 5023,
    "trial_type": "image-rank",
    "trial_index": 78,
    "time_elapsed": 460285,
    "internal_node_id": "0.0-78.0"
}, {
    "src": ["gl/152815_gl.png", "ours/152815_ours.png", "ce/152815_ce.png"],
    "rank_data": [1, 0, 2],
    "rank_result": ["ours/152815_ours.png", "gl/152815_gl.png", "ce/152815_ce.png"],
    "rt": 9130,
    "trial_type": "image-rank",
    "trial_index": 79,
    "time_elapsed": 469416,
    "internal_node_id": "0.0-79.0"
}, {
    "src": ["ce/189578_ce.png", "ours/189578_ours.png", "gl/189578_gl.png"],
    "rank_data": [2, 0, 1],
    "rank_result": ["ours/189578_ours.png", "gl/189578_gl.png", "ce/189578_ce.png"],
    "rt": 9495,
    "trial_type": "image-rank",
    "trial_index": 80,
    "time_elapsed": 478912,
    "internal_node_id": "0.0-80.0"
}, {
    "src": ["gl/092285_gl.png", "ce/092285_ce.png", "ours/092285_ours.png"],
    "rank_data": [1, 2, 0],
    "rank_result": ["ours/092285_ours.png", "gl/092285_gl.png", "ce/092285_ce.png"],
    "rt": 7301,
    "trial_type": "image-rank",
    "trial_index": 81,
    "time_elapsed": 486214,
    "internal_node_id": "0.0-81.0"
}, {
    "src": ["ce/166925_ce.png", "gl/166925_gl.png", "ours/166925_ours.png"],
    "rank_data": [1, 2, 0],
    "rank_result": ["ours/166925_ours.png", "ce/166925_ce.png", "gl/166925_gl.png"],
    "rt": 4232,
    "trial_type": "image-rank",
    "trial_index": 82,
    "time_elapsed": 490446,
    "internal_node_id": "0.0-82.0"
}, {
    "src": ["gl/157752_gl.png", "ce/157752_ce.png", "ours/157752_ours.png"],
    "rank_data": [2, 1, 0],
    "rank_result": ["ours/157752_ours.png", "ce/157752_ce.png", "gl/157752_gl.png"],
    "rt": 4706,
    "trial_type": "image-rank",
    "trial_index": 83,
    "time_elapsed": 495152,
    "internal_node_id": "0.0-83.0"
}, {
    "src": ["gl/161767_gl.png", "ours/161767_ours.png", "ce/161767_ce.png"],
    "rank_data": [0, 1, 2],
    "rank_result": ["gl/161767_gl.png", "ours/161767_ours.png", "ce/161767_ce.png"],
    "rt": 4757,
    "trial_type": "image-rank",
    "trial_index": 84,
    "time_elapsed": 499910,
    "internal_node_id": "0.0-84.0"
}, {
    "src": ["ce/003620_ce.png", "gl/003620_gl.png", "ours/003620_ours.png"],
    "rank_data": [1, 2, 0],
    "rank_result": ["ours/003620_ours.png", "ce/003620_ce.png", "gl/003620_gl.png"],
    "rt": 5700,
    "trial_type": "image-rank",
    "trial_index": 85,
    "time_elapsed": 505611,
    "internal_node_id": "0.0-85.0"
}, {
    "src": ["ours/111644_ours.png", "ce/111644_ce.png", "gl/111644_gl.png"],
    "rank_data": [0, 1, 2],
    "rank_result": ["ours/111644_ours.png", "ce/111644_ce.png", "gl/111644_gl.png"],
    "rt": 4855,
    "trial_type": "image-rank",
    "trial_index": 86,
    "time_elapsed": 510467,
    "internal_node_id": "0.0-86.0"
}, {
    "src": ["ce/078444_ce.png", "ours/078444_ours.png", "gl/078444_gl.png"],
    "rank_data": [2, 0, 1],
    "rank_result": ["ours/078444_ours.png", "gl/078444_gl.png", "ce/078444_ce.png"],
    "rt": 4209,
    "trial_type": "image-rank",
    "trial_index": 87,
    "time_elapsed": 514677,
    "internal_node_id": "0.0-87.0"
}, {
    "src": ["ce/166911_ce.png", "ours/166911_ours.png", "gl/166911_gl.png"],
    "rank_data": [1, 0, 2],
    "rank_result": ["ours/166911_ours.png", "ce/166911_ce.png", "gl/166911_gl.png"],
    "rt": 9063,
    "trial_type": "image-rank",
    "trial_index": 88,
    "time_elapsed": 523741,
    "internal_node_id": "0.0-88.0"
}, {
    "src": ["ours/169538_ours.png", "ce/169538_ce.png", "gl/169538_gl.png"],
    "rank_data": [0, 1, 2],
    "rank_result": ["ours/169538_ours.png", "ce/169538_ce.png", "gl/169538_gl.png"],
    "rt": 6632,
    "trial_type": "image-rank",
    "trial_index": 89,
    "time_elapsed": 530374,
    "internal_node_id": "0.0-89.0"
}, {
    "src": ["ce/197358_ce.png", "ours/197358_ours.png", "gl/197358_gl.png"],
    "rank_data": [2, 0, 1],
    "rank_result": ["ours/197358_ours.png", "gl/197358_gl.png", "ce/197358_ce.png"],
    "rt": 5501,
    "trial_type": "image-rank",
    "trial_index": 90,
    "time_elapsed": 535875,
    "internal_node_id": "0.0-90.0"
}, {
    "src": ["ce/018883_ce.png", "ours/018883_ours.png", "gl/018883_gl.png"],
    "rank_data": [2, 0, 1],
    "rank_result": ["ours/018883_ours.png", "gl/018883_gl.png", "ce/018883_ce.png"],
    "rt": 4701,
    "trial_type": "image-rank",
    "trial_index": 91,
    "time_elapsed": 540578,
    "internal_node_id": "0.0-91.0"
}, {
    "src": ["gl/020848_gl.png", "ce/020848_ce.png", "ours/020848_ours.png"],
    "rank_data": [1, 2, 0],
    "rank_result": ["ours/020848_ours.png", "gl/020848_gl.png", "ce/020848_ce.png"],
    "rt": 7991,
    "trial_type": "image-rank",
    "trial_index": 92,
    "time_elapsed": 548570,
    "internal_node_id": "0.0-92.0"
}, {
    "src": ["ours/193766_ours.png", "ce/193766_ce.png", "gl/193766_gl.png"],
    "rank_data": [0, 1, 2],
    "rank_result": ["ours/193766_ours.png", "ce/193766_ce.png", "gl/193766_gl.png"],
    "rt": 5362,
    "trial_type": "image-rank",
    "trial_index": 93,
    "time_elapsed": 553932,
    "internal_node_id": "0.0-93.0"
}, {
    "src": ["ours/176423_ours.png", "ce/176423_ce.png", "gl/176423_gl.png"],
    "rank_data": [0, 2, 1],
    "rank_result": ["ours/176423_ours.png", "gl/176423_gl.png", "ce/176423_ce.png"],
    "rt": 4591,
    "trial_type": "image-rank",
    "trial_index": 94,
    "time_elapsed": 558524,
    "internal_node_id": "0.0-94.0"
}, {
    "src": ["ours/176792_ours.png", "gl/176792_gl.png", "ce/176792_ce.png"],
    "rank_data": [0, 1, 2],
    "rank_result": ["ours/176792_ours.png", "gl/176792_gl.png", "ce/176792_ce.png"],
    "rt": 5982,
    "trial_type": "image-rank",
    "trial_index": 95,
    "time_elapsed": 564506,
    "internal_node_id": "0.0-95.0"
}, {
    "src": ["ce/030639_ce.png", "gl/030639_gl.png", "ours/030639_ours.png"],
    "rank_data": [2, 1, 0],
    "rank_result": ["ours/030639_ours.png", "gl/030639_gl.png", "ce/030639_ce.png"],
    "rt": 4374,
    "trial_type": "image-rank",
    "trial_index": 96,
    "time_elapsed": 568880,
    "internal_node_id": "0.0-96.0"
}, {
    "src": ["ours/072864_ours.png", "gl/072864_gl.png", "ce/072864_ce.png"],
    "rank_data": [0, 2, 1],
    "rank_result": ["ours/072864_ours.png", "ce/072864_ce.png", "gl/072864_gl.png"],
    "rt": 8452,
    "trial_type": "image-rank",
    "trial_index": 97,
    "time_elapsed": 577335,
    "internal_node_id": "0.0-97.0"
}, {
    "src": ["ours/121278_ours.png", "ce/121278_ce.png", "gl/121278_gl.png"],
    "rank_data": [0, 2, 1],
    "rank_result": ["ours/121278_ours.png", "gl/121278_gl.png", "ce/121278_ce.png"],
    "rt": 4399,
    "trial_type": "image-rank",
    "trial_index": 98,
    "time_elapsed": 581735,
    "internal_node_id": "0.0-98.0"
}, {
    "src": ["ours/118781_ours.png", "gl/118781_gl.png", "ce/118781_ce.png"],
    "rank_data": [0, 2, 1],
    "rank_result": ["ours/118781_ours.png", "ce/118781_ce.png", "gl/118781_gl.png"],
    "rt": 4941,
    "trial_type": "image-rank",
    "trial_index": 99,
    "time_elapsed": 586677,
    "internal_node_id": "0.0-99.0"
}, {
    "src": ["ce/060299_ce.png", "gl/060299_gl.png", "ours/060299_ours.png"],
    "rank_data": [2, 1, 0],
    "rank_result": ["ours/060299_ours.png", "gl/060299_gl.png", "ce/060299_ce.png"],
    "rt": 4367,
    "trial_type": "image-rank",
    "trial_index": 100,
    "time_elapsed": 591045,
    "internal_node_id": "0.0-100.0"
}, {
    "src": ["gl/069132_gl.png", "ours/069132_ours.png", "ce/069132_ce.png"],
    "rank_data": [2, 0, 1],
    "rank_result": ["ours/069132_ours.png", "ce/069132_ce.png", "gl/069132_gl.png"],
    "rt": 5678,
    "trial_type": "image-rank",
    "trial_index": 101,
    "time_elapsed": 596723,
    "internal_node_id": "0.0-101.0"
}, {
    "src": ["ours/035909_ours.png", "ce/035909_ce.png", "gl/035909_gl.png"],
    "rank_data": [0, 1, 2],
    "rank_result": ["ours/035909_ours.png", "ce/035909_ce.png", "gl/035909_gl.png"],
    "rt": 5278,
    "trial_type": "image-rank",
    "trial_index": 102,
    "time_elapsed": 602001,
    "internal_node_id": "0.0-102.0"
}, {
    "rt": 9414,
    "responses": "{\"Q0\":\"Caiping Wei 28\"}",
    "trial_type": "survey-text",
    "trial_index": 103,
    "time_elapsed": 611417,
    "internal_node_id": "0.0-103.0"
}, {
    "rt": 6592,
    "responses": "{\"Q0\":\"28\"}",
    "trial_type": "survey-text",
    "trial_index": 104,
    "time_elapsed": 618010,
    "internal_node_id": "0.0-104.0"
}, {
    "rt": 8588,
    "stimulus": "<div style=\"font-size:15px;\">You have reached the end of the experiment! Press any key to finish.</div>",
    "key_press": 13,
    "trial_type": "html-keyboard-response",
    "trial_index": 105,
    "time_elapsed": 626598,
    "internal_node_id": "0.0-105.0"
}]