[{"rt":2506,"stimulus":"Welcome to the experiment. Press any key to begin.","key_press":32,"trial_type":"html-keyboard-response","trial_index":0,"time_elapsed":2508,"internal_node_id":"0.0-0.0"},{"rt":4187,"stimulus":"<p>In this experiment, three images of people will appear in the center of the screen.</p><p>Your task is to rank these images based on how <strong>real</strong> you think they are.<p>The ranking level is between 1 to 3, with <strong>1</strong> representing the most real one and <strong>3</strong> the fakest one.</p><p>The time to rank is not limited. When you finish ranking, click the <strong>Continue</strong> button to continue.</p>","key_press":13,"trial_type":"html-keyboard-response","trial_index":1,"time_elapsed":6699,"internal_node_id":"0.0-1.0"},{"rt":null,"stimulus":"<div style=\"font-size:60px;\"></div>","key_press":null,"label":"fixation","trial_type":"html-keyboard-response","trial_index":2,"time_elapsed":7702,"internal_node_id":"0.0-2.0"},{"src":["ce/056914_ce.png","ours/056914_ours.png","gl/056914_gl.png"],"rank_data":[1,2,0],"rank_result":["gl/056914_gl.png","ce/056914_ce.png","ours/056914_ours.png"],"rt":14627,"trial_type":"image-rank","trial_index":3,"time_elapsed":22332,"internal_node_id":"0.0-3.0"},{"src":["ce/152015_ce.png","ours/152015_ours.png","gl/152015_gl.png"],"rank_data":[1,2,0],"rank_result":["gl/152015_gl.png","ce/152015_ce.png","ours/152015_ours.png"],"rt":9984,"trial_type":"image-rank","trial_index":4,"time_elapsed":32319,"internal_node_id":"0.0-4.0"},{"src":["gl/019816_gl.png","ce/019816_ce.png","ours/019816_ours.png"],"rank_data":[0,1,2],"rank_result":["gl/019816_gl.png","ce/019816_ce.png","ours/019816_ours.png"],"rt":13317,"trial_type":"image-rank","trial_index":5,"time_elapsed":45639,"internal_node_id":"0.0-5.0"},{"src":["ce/068589_ce.png","gl/068589_gl.png","ours/068589_ours.png"],"rank_data":[1,0,2],"rank_result":["gl/068589_gl.png","ce/068589_ce.png","ours/068589_ours.png"],"rt":12744,"trial_type":"image-rank","trial_index":6,"time_elapsed":58384,"internal_node_id":"0.0-6.0"},{"src":["ours/059555_ours.png","ce/059555_ce.png","gl/059555_gl.png"],"rank_data":[1,0,2],"rank_result":["ce/059555_ce.png","ours/059555_ours.png","gl/059555_gl.png"],"rt":12998,"trial_type":"image-rank","trial_index":7,"time_elapsed":71382,"internal_node_id":"0.0-7.0"},{"src":["ours/099271_ours.png","ce/099271_ce.png","gl/099271_gl.png"],"rank_data":[2,1,0],"rank_result":["gl/099271_gl.png","ce/099271_ce.png","ours/099271_ours.png"],"rt":9287,"trial_type":"image-rank","trial_index":8,"time_elapsed":80671,"internal_node_id":"0.0-8.0"},{"src":["ours/091761_ours.png","gl/091761_gl.png","ce/091761_ce.png"],"rank_data":[2,0,1],"rank_result":["gl/091761_gl.png","ce/091761_ce.png","ours/091761_ours.png"],"rt":5918,"trial_type":"image-rank","trial_index":9,"time_elapsed":86590,"internal_node_id":"0.0-9.0"},{"src":["ce/101871_ce.png","ours/101871_ours.png","gl/101871_gl.png"],"rank_data":[1,2,0],"rank_result":["gl/101871_gl.png","ce/101871_ce.png","ours/101871_ours.png"],"rt":15995,"trial_type":"image-rank","trial_index":10,"time_elapsed":102586,"internal_node_id":"0.0-10.0"},{"src":["ours/152244_ours.png","ce/152244_ce.png","gl/152244_gl.png"],"rank_data":[2,1,0],"rank_result":["gl/152244_gl.png","ce/152244_ce.png","ours/152244_ours.png"],"rt":11238,"trial_type":"image-rank","trial_index":11,"time_elapsed":113824,"internal_node_id":"0.0-11.0"},{"src":["ce/182778_ce.png","ours/182778_ours.png","gl/182778_gl.png"],"rank_data":[0,2,1],"rank_result":["ce/182778_ce.png","gl/182778_gl.png","ours/182778_ours.png"],"rt":5995,"trial_type":"image-rank","trial_index":12,"time_elapsed":119821,"internal_node_id":"0.0-12.0"},{"src":["ce/023431_ce.png","gl/023431_gl.png","ours/023431_ours.png"],"rank_data":[0,2,1],"rank_result":["ce/023431_ce.png","ours/023431_ours.png","gl/023431_gl.png"],"rt":14256,"trial_type":"image-rank","trial_index":13,"time_elapsed":134080,"internal_node_id":"0.0-13.0"},{"src":["ce/097041_ce.png","gl/097041_gl.png","ours/097041_ours.png"],"rank_data":[1,0,2],"rank_result":["gl/097041_gl.png","ce/097041_ce.png","ours/097041_ours.png"],"rt":8365,"trial_type":"image-rank","trial_index":14,"time_elapsed":142447,"internal_node_id":"0.0-14.0"},{"src":["ours/104852_ours.png","gl/104852_gl.png","ce/104852_ce.png"],"rank_data":[2,0,1],"rank_result":["gl/104852_gl.png","ce/104852_ce.png","ours/104852_ours.png"],"rt":7302,"trial_type":"image-rank","trial_index":15,"time_elapsed":149749,"internal_node_id":"0.0-15.0"},{"src":["ours/017855_ours.png","gl/017855_gl.png","ce/017855_ce.png"],"rank_data":[2,0,1],"rank_result":["gl/017855_gl.png","ce/017855_ce.png","ours/017855_ours.png"],"rt":7736,"trial_type":"image-rank","trial_index":16,"time_elapsed":157485,"internal_node_id":"0.0-16.0"},{"src":["gl/108064_gl.png","ours/108064_ours.png","ce/108064_ce.png"],"rank_data":[0,2,1],"rank_result":["gl/108064_gl.png","ce/108064_ce.png","ours/108064_ours.png"],"rt":8714,"trial_type":"image-rank","trial_index":17,"time_elapsed":166201,"internal_node_id":"0.0-17.0"},{"src":["gl/055882_gl.png","ce/055882_ce.png","ours/055882_ours.png"],"rank_data":[0,1,2],"rank_result":["gl/055882_gl.png","ce/055882_ce.png","ours/055882_ours.png"],"rt":6340,"trial_type":"image-rank","trial_index":18,"time_elapsed":172541,"internal_node_id":"0.0-18.0"},{"src":["gl/093370_gl.png","ce/093370_ce.png","ours/093370_ours.png"],"rank_data":[0,1,2],"rank_result":["gl/093370_gl.png","ce/093370_ce.png","ours/093370_ours.png"],"rt":4540,"trial_type":"image-rank","trial_index":19,"time_elapsed":177082,"internal_node_id":"0.0-19.0"},{"src":["ce/059455_ce.png","gl/059455_gl.png","ours/059455_ours.png"],"rank_data":[0,1,2],"rank_result":["ce/059455_ce.png","gl/059455_gl.png","ours/059455_ours.png"],"rt":4453,"trial_type":"image-rank","trial_index":20,"time_elapsed":181535,"internal_node_id":"0.0-20.0"},{"src":["ce/113687_ce.png","ours/113687_ours.png","gl/113687_gl.png"],"rank_data":[1,2,0],"rank_result":["gl/113687_gl.png","ce/113687_ce.png","ours/113687_ours.png"],"rt":5144,"trial_type":"image-rank","trial_index":21,"time_elapsed":186683,"internal_node_id":"0.0-21.0"},{"src":["ce/064803_ce.png","ours/064803_ours.png","gl/064803_gl.png"],"rank_data":[1,2,0],"rank_result":["gl/064803_gl.png","ce/064803_ce.png","ours/064803_ours.png"],"rt":4216,"trial_type":"image-rank","trial_index":22,"time_elapsed":190900,"internal_node_id":"0.0-22.0"},{"src":["ce/033473_ce.png","gl/033473_gl.png","ours/033473_ours.png"],"rank_data":[1,0,2],"rank_result":["gl/033473_gl.png","ce/033473_ce.png","ours/033473_ours.png"],"rt":4451,"trial_type":"image-rank","trial_index":23,"time_elapsed":195353,"internal_node_id":"0.0-23.0"},{"src":["ours/177749_ours.png","gl/177749_gl.png","ce/177749_ce.png"],"rank_data":[2,0,1],"rank_result":["gl/177749_gl.png","ce/177749_ce.png","ours/177749_ours.png"],"rt":4252,"trial_type":"image-rank","trial_index":24,"time_elapsed":199605,"internal_node_id":"0.0-24.0"},{"src":["gl/077983_gl.png","ours/077983_ours.png","ce/077983_ce.png"],"rank_data":[1,2,0],"rank_result":["ce/077983_ce.png","gl/077983_gl.png","ours/077983_ours.png"],"rt":4390,"trial_type":"image-rank","trial_index":25,"time_elapsed":203995,"internal_node_id":"0.0-25.0"},{"src":["ce/051286_ce.png","ours/051286_ours.png","gl/051286_gl.png"],"rank_data":[1,2,0],"rank_result":["gl/051286_gl.png","ce/051286_ce.png","ours/051286_ours.png"],"rt":3529,"trial_type":"image-rank","trial_index":26,"time_elapsed":207524,"internal_node_id":"0.0-26.0"},{"src":["gl/186999_gl.png","ours/186999_ours.png","ce/186999_ce.png"],"rank_data":[0,2,1],"rank_result":["gl/186999_gl.png","ce/186999_ce.png","ours/186999_ours.png"],"rt":4107,"trial_type":"image-rank","trial_index":27,"time_elapsed":211632,"internal_node_id":"0.0-27.0"},{"src":["gl/064771_gl.png","ours/064771_ours.png","ce/064771_ce.png"],"rank_data":[0,2,1],"rank_result":["gl/064771_gl.png","ce/064771_ce.png","ours/064771_ours.png"],"rt":7680,"trial_type":"image-rank","trial_index":28,"time_elapsed":219313,"internal_node_id":"0.0-28.0"},{"src":["gl/047427_gl.png","ours/047427_ours.png","ce/047427_ce.png"],"rank_data":[0,2,1],"rank_result":["gl/047427_gl.png","ce/047427_ce.png","ours/047427_ours.png"],"rt":6449,"trial_type":"image-rank","trial_index":29,"time_elapsed":225762,"internal_node_id":"0.0-29.0"},{"src":["ours/195258_ours.png","ce/195258_ce.png","gl/195258_gl.png"],"rank_data":[2,1,0],"rank_result":["gl/195258_gl.png","ce/195258_ce.png","ours/195258_ours.png"],"rt":4728,"trial_type":"image-rank","trial_index":30,"time_elapsed":230493,"internal_node_id":"0.0-30.0"},{"src":["ours/035619_ours.png","ce/035619_ce.png","gl/035619_gl.png"],"rank_data":[0,2,1],"rank_result":["ours/035619_ours.png","gl/035619_gl.png","ce/035619_ce.png"],"rt":7005,"trial_type":"image-rank","trial_index":31,"time_elapsed":237501,"internal_node_id":"0.0-31.0"},{"src":["ours/198523_ours.png","ce/198523_ce.png","gl/198523_gl.png"],"rank_data":[2,1,0],"rank_result":["gl/198523_gl.png","ce/198523_ce.png","ours/198523_ours.png"],"rt":3175,"trial_type":"image-rank","trial_index":32,"time_elapsed":240676,"internal_node_id":"0.0-32.0"},{"src":["ce/059169_ce.png","gl/059169_gl.png","ours/059169_ours.png"],"rank_data":[1,0,2],"rank_result":["gl/059169_gl.png","ce/059169_ce.png","ours/059169_ours.png"],"rt":3369,"trial_type":"image-rank","trial_index":33,"time_elapsed":244046,"internal_node_id":"0.0-33.0"},{"src":["gl/099857_gl.png","ce/099857_ce.png","ours/099857_ours.png"],"rank_data":[0,1,2],"rank_result":["gl/099857_gl.png","ce/099857_ce.png","ours/099857_ours.png"],"rt":3775,"trial_type":"image-rank","trial_index":34,"time_elapsed":247823,"internal_node_id":"0.0-34.0"},{"src":["ours/183886_ours.png","gl/183886_gl.png","ce/183886_ce.png"],"rank_data":[2,1,0],"rank_result":["ce/183886_ce.png","gl/183886_gl.png","ours/183886_ours.png"],"rt":6174,"trial_type":"image-rank","trial_index":35,"time_elapsed":253999,"internal_node_id":"0.0-35.0"},{"src":["ours/195511_ours.png","gl/195511_gl.png","ce/195511_ce.png"],"rank_data":[2,1,0],"rank_result":["ce/195511_ce.png","gl/195511_gl.png","ours/195511_ours.png"],"rt":5210,"trial_type":"image-rank","trial_index":36,"time_elapsed":259211,"internal_node_id":"0.0-36.0"},{"src":["gl/171635_gl.png","ce/171635_ce.png","ours/171635_ours.png"],"rank_data":[0,1,2],"rank_result":["gl/171635_gl.png","ce/171635_ce.png","ours/171635_ours.png"],"rt":5942,"trial_type":"image-rank","trial_index":37,"time_elapsed":265155,"internal_node_id":"0.0-37.0"},{"src":["ce/120541_ce.png","gl/120541_gl.png","ours/120541_ours.png"],"rank_data":[1,0,2],"rank_result":["gl/120541_gl.png","ce/120541_ce.png","ours/120541_ours.png"],"rt":8727,"trial_type":"image-rank","trial_index":38,"time_elapsed":273882,"internal_node_id":"0.0-38.0"},{"src":["gl/181382_gl.png","ours/181382_ours.png","ce/181382_ce.png"],"rank_data":[0,2,1],"rank_result":["gl/181382_gl.png","ce/181382_ce.png","ours/181382_ours.png"],"rt":4059,"trial_type":"image-rank","trial_index":39,"time_elapsed":277942,"internal_node_id":"0.0-39.0"},{"src":["ours/074112_ours.png","gl/074112_gl.png","ce/074112_ce.png"],"rank_data":[2,1,0],"rank_result":["ce/074112_ce.png","gl/074112_gl.png","ours/074112_ours.png"],"rt":9092,"trial_type":"image-rank","trial_index":40,"time_elapsed":287036,"internal_node_id":"0.0-40.0"},{"src":["ours/133632_ours.png","ce/133632_ce.png","gl/133632_gl.png"],"rank_data":[2,0,1],"rank_result":["ce/133632_ce.png","gl/133632_gl.png","ours/133632_ours.png"],"rt":10827,"trial_type":"image-rank","trial_index":41,"time_elapsed":297864,"internal_node_id":"0.0-41.0"},{"src":["gl/052891_gl.png","ce/052891_ce.png","ours/052891_ours.png"],"rank_data":[0,1,2],"rank_result":["gl/052891_gl.png","ce/052891_ce.png","ours/052891_ours.png"],"rt":6489,"trial_type":"image-rank","trial_index":42,"time_elapsed":304353,"internal_node_id":"0.0-42.0"},{"src":["ce/146261_ce.png","gl/146261_gl.png","ours/146261_ours.png"],"rank_data":[1,0,2],"rank_result":["gl/146261_gl.png","ce/146261_ce.png","ours/146261_ours.png"],"rt":9038,"trial_type":"image-rank","trial_index":43,"time_elapsed":313392,"internal_node_id":"0.0-43.0"},{"src":["gl/050953_gl.png","ours/050953_ours.png","ce/050953_ce.png"],"rank_data":[1,2,0],"rank_result":["ce/050953_ce.png","gl/050953_gl.png","ours/050953_ours.png"],"rt":4387,"trial_type":"image-rank","trial_index":44,"time_elapsed":317783,"internal_node_id":"0.0-44.0"},{"src":["ce/100587_ce.png","gl/100587_gl.png","ours/100587_ours.png"],"rank_data":[2,0,1],"rank_result":["gl/100587_gl.png","ours/100587_ours.png","ce/100587_ce.png"],"rt":4980,"trial_type":"image-rank","trial_index":45,"time_elapsed":322764,"internal_node_id":"0.0-45.0"},{"src":["ce/003240_ce.png","ours/003240_ours.png","gl/003240_gl.png"],"rank_data":[1,2,0],"rank_result":["gl/003240_gl.png","ce/003240_ce.png","ours/003240_ours.png"],"rt":4254,"trial_type":"image-rank","trial_index":46,"time_elapsed":327019,"internal_node_id":"0.0-46.0"},{"src":["ce/066361_ce.png","gl/066361_gl.png","ours/066361_ours.png"],"rank_data":[1,0,2],"rank_result":["gl/066361_gl.png","ce/066361_ce.png","ours/066361_ours.png"],"rt":6360,"trial_type":"image-rank","trial_index":47,"time_elapsed":333380,"internal_node_id":"0.0-47.0"},{"src":["ours/070082_ours.png","ce/070082_ce.png","gl/070082_gl.png"],"rank_data":[2,1,0],"rank_result":["gl/070082_gl.png","ce/070082_ce.png","ours/070082_ours.png"],"rt":8619,"trial_type":"image-rank","trial_index":48,"time_elapsed":342000,"internal_node_id":"0.0-48.0"},{"src":["ours/008289_ours.png","gl/008289_gl.png","ce/008289_ce.png"],"rank_data":[2,1,0],"rank_result":["ce/008289_ce.png","gl/008289_gl.png","ours/008289_ours.png"],"rt":8405,"trial_type":"image-rank","trial_index":49,"time_elapsed":350405,"internal_node_id":"0.0-49.0"},{"src":["ours/192941_ours.png","ce/192941_ce.png","gl/192941_gl.png"],"rank_data":[2,1,0],"rank_result":["gl/192941_gl.png","ce/192941_ce.png","ours/192941_ours.png"],"rt":9177,"trial_type":"image-rank","trial_index":50,"time_elapsed":359584,"internal_node_id":"0.0-50.0"},{"src":["gl/118834_gl.png","ce/118834_ce.png","ours/118834_ours.png"],"rank_data":[0,1,2],"rank_result":["gl/118834_gl.png","ce/118834_ce.png","ours/118834_ours.png"],"rt":6949,"trial_type":"image-rank","trial_index":51,"time_elapsed":366533,"internal_node_id":"0.0-51.0"},{"src":["ce/196427_ce.png","ours/196427_ours.png","gl/196427_gl.png"],"rank_data":[1,2,0],"rank_result":["gl/196427_gl.png","ce/196427_ce.png","ours/196427_ours.png"],"rt":4946,"trial_type":"image-rank","trial_index":52,"time_elapsed":371481,"internal_node_id":"0.0-52.0"},{"src":["ce/069854_ce.png","gl/069854_gl.png","ours/069854_ours.png"],"rank_data":[1,0,2],"rank_result":["gl/069854_gl.png","ce/069854_ce.png","ours/069854_ours.png"],"rt":6879,"trial_type":"image-rank","trial_index":53,"time_elapsed":378360,"internal_node_id":"0.0-53.0"},{"src":["ce/096873_ce.png","gl/096873_gl.png","ours/096873_ours.png"],"rank_data":[0,1,2],"rank_result":["ce/096873_ce.png","gl/096873_gl.png","ours/096873_ours.png"],"rt":6912,"trial_type":"image-rank","trial_index":54,"time_elapsed":385274,"internal_node_id":"0.0-54.0"},{"src":["gl/096662_gl.png","ours/096662_ours.png","ce/096662_ce.png"],"rank_data":[0,2,1],"rank_result":["gl/096662_gl.png","ce/096662_ce.png","ours/096662_ours.png"],"rt":5676,"trial_type":"image-rank","trial_index":55,"time_elapsed":390950,"internal_node_id":"0.0-55.0"},{"src":["ours/069235_ours.png","ce/069235_ce.png","gl/069235_gl.png"],"rank_data":[2,1,0],"rank_result":["gl/069235_gl.png","ce/069235_ce.png","ours/069235_ours.png"],"rt":4256,"trial_type":"image-rank","trial_index":56,"time_elapsed":395207,"internal_node_id":"0.0-56.0"},{"src":["ce/046829_ce.png","ours/046829_ours.png","gl/046829_gl.png"],"rank_data":[0,2,1],"rank_result":["ce/046829_ce.png","gl/046829_gl.png","ours/046829_ours.png"],"rt":4245,"trial_type":"image-rank","trial_index":57,"time_elapsed":399452,"internal_node_id":"0.0-57.0"},{"src":["gl/128300_gl.png","ce/128300_ce.png","ours/128300_ours.png"],"rank_data":[0,1,2],"rank_result":["gl/128300_gl.png","ce/128300_ce.png","ours/128300_ours.png"],"rt":7444,"trial_type":"image-rank","trial_index":58,"time_elapsed":406897,"internal_node_id":"0.0-58.0"},{"src":["ce/039122_ce.png","ours/039122_ours.png","gl/039122_gl.png"],"rank_data":[0,2,1],"rank_result":["ce/039122_ce.png","gl/039122_gl.png","ours/039122_ours.png"],"rt":6544,"trial_type":"image-rank","trial_index":59,"time_elapsed":413442,"internal_node_id":"0.0-59.0"},{"src":["gl/057498_gl.png","ce/057498_ce.png","ours/057498_ours.png"],"rank_data":[0,1,2],"rank_result":["gl/057498_gl.png","ce/057498_ce.png","ours/057498_ours.png"],"rt":3224,"trial_type":"image-rank","trial_index":60,"time_elapsed":416666,"internal_node_id":"0.0-60.0"},{"src":["ours/068696_ours.png","ce/068696_ce.png","gl/068696_gl.png"],"rank_data":[2,0,1],"rank_result":["ce/068696_ce.png","gl/068696_gl.png","ours/068696_ours.png"],"rt":5493,"trial_type":"image-rank","trial_index":61,"time_elapsed":422160,"internal_node_id":"0.0-61.0"},{"src":["ours/084025_ours.png","ce/084025_ce.png","gl/084025_gl.png"],"rank_data":[2,0,1],"rank_result":["ce/084025_ce.png","gl/084025_gl.png","ours/084025_ours.png"],"rt":3384,"trial_type":"image-rank","trial_index":62,"time_elapsed":425545,"internal_node_id":"0.0-62.0"},{"src":["gl/077276_gl.png","ours/077276_ours.png","ce/077276_ce.png"],"rank_data":[0,2,1],"rank_result":["gl/077276_gl.png","ce/077276_ce.png","ours/077276_ours.png"],"rt":5154,"trial_type":"image-rank","trial_index":63,"time_elapsed":430701,"internal_node_id":"0.0-63.0"},{"src":["ours/127504_ours.png","gl/127504_gl.png","ce/127504_ce.png"],"rank_data":[2,1,0],"rank_result":["ce/127504_ce.png","gl/127504_gl.png","ours/127504_ours.png"],"rt":5549,"trial_type":"image-rank","trial_index":64,"time_elapsed":436251,"internal_node_id":"0.0-64.0"},{"src":["gl/109509_gl.png","ce/109509_ce.png","ours/109509_ours.png"],"rank_data":[1,0,2],"rank_result":["ce/109509_ce.png","gl/109509_gl.png","ours/109509_ours.png"],"rt":7554,"trial_type":"image-rank","trial_index":65,"time_elapsed":443806,"internal_node_id":"0.0-65.0"},{"src":["gl/080150_gl.png","ce/080150_ce.png","ours/080150_ours.png"],"rank_data":[0,1,2],"rank_result":["gl/080150_gl.png","ce/080150_ce.png","ours/080150_ours.png"],"rt":4890,"trial_type":"image-rank","trial_index":66,"time_elapsed":448697,"internal_node_id":"0.0-66.0"},{"src":["gl/048969_gl.png","ce/048969_ce.png","ours/048969_ours.png"],"rank_data":[0,1,2],"rank_result":["gl/048969_gl.png","ce/048969_ce.png","ours/048969_ours.png"],"rt":3704,"trial_type":"image-rank","trial_index":67,"time_elapsed":452403,"internal_node_id":"0.0-67.0"},{"src":["ours/139013_ours.png","gl/139013_gl.png","ce/139013_ce.png"],"rank_data":[2,0,1],"rank_result":["gl/139013_gl.png","ce/139013_ce.png","ours/139013_ours.png"],"rt":4873,"trial_type":"image-rank","trial_index":68,"time_elapsed":457276,"internal_node_id":"0.0-68.0"},{"src":["ours/199094_ours.png","ce/199094_ce.png","gl/199094_gl.png"],"rank_data":[2,0,1],"rank_result":["ce/199094_ce.png","gl/199094_gl.png","ours/199094_ours.png"],"rt":6375,"trial_type":"image-rank","trial_index":69,"time_elapsed":463652,"internal_node_id":"0.0-69.0"},{"src":["ours/118383_ours.png","ce/118383_ce.png","gl/118383_gl.png"],"rank_data":[2,1,0],"rank_result":["gl/118383_gl.png","ce/118383_ce.png","ours/118383_ours.png"],"rt":4769,"trial_type":"image-rank","trial_index":70,"time_elapsed":468422,"internal_node_id":"0.0-70.0"},{"src":["gl/051289_gl.png","ours/051289_ours.png","ce/051289_ce.png"],"rank_data":[0,2,1],"rank_result":["gl/051289_gl.png","ce/051289_ce.png","ours/051289_ours.png"],"rt":3448,"trial_type":"image-rank","trial_index":71,"time_elapsed":471871,"internal_node_id":"0.0-71.0"},{"src":["gl/053544_gl.png","ce/053544_ce.png","ours/053544_ours.png"],"rank_data":[1,0,2],"rank_result":["ce/053544_ce.png","gl/053544_gl.png","ours/053544_ours.png"],"rt":4850,"trial_type":"image-rank","trial_index":72,"time_elapsed":476722,"internal_node_id":"0.0-72.0"},{"src":["ours/064881_ours.png","gl/064881_gl.png","ce/064881_ce.png"],"rank_data":[2,0,1],"rank_result":["gl/064881_gl.png","ce/064881_ce.png","ours/064881_ours.png"],"rt":5997,"trial_type":"image-rank","trial_index":73,"time_elapsed":482720,"internal_node_id":"0.0-73.0"},{"src":["gl/092133_gl.png","ours/092133_ours.png","ce/092133_ce.png"],"rank_data":[0,1,2],"rank_result":["gl/092133_gl.png","ours/092133_ours.png","ce/092133_ce.png"],"rt":5123,"trial_type":"image-rank","trial_index":74,"time_elapsed":487844,"internal_node_id":"0.0-74.0"},{"src":["ce/147157_ce.png","gl/147157_gl.png","ours/147157_ours.png"],"rank_data":[1,0,2],"rank_result":["gl/147157_gl.png","ce/147157_ce.png","ours/147157_ours.png"],"rt":7326,"trial_type":"image-rank","trial_index":75,"time_elapsed":495172,"internal_node_id":"0.0-75.0"},{"src":["ce/013881_ce.png","gl/013881_gl.png","ours/013881_ours.png"],"rank_data":[1,0,2],"rank_result":["gl/013881_gl.png","ce/013881_ce.png","ours/013881_ours.png"],"rt":2541,"trial_type":"image-rank","trial_index":76,"time_elapsed":497714,"internal_node_id":"0.0-76.0"},{"src":["gl/173531_gl.png","ours/173531_ours.png","ce/173531_ce.png"],"rank_data":[0,2,1],"rank_result":["gl/173531_gl.png","ce/173531_ce.png","ours/173531_ours.png"],"rt":3727,"trial_type":"image-rank","trial_index":77,"time_elapsed":501441,"internal_node_id":"0.0-77.0"},{"src":["ce/001284_ce.png","ours/001284_ours.png","gl/001284_gl.png"],"rank_data":[1,2,0],"rank_result":["gl/001284_gl.png","ce/001284_ce.png","ours/001284_ours.png"],"rt":5147,"trial_type":"image-rank","trial_index":78,"time_elapsed":506589,"internal_node_id":"0.0-78.0"},{"src":["ce/083907_ce.png","gl/083907_gl.png","ours/083907_ours.png"],"rank_data":[0,1,2],"rank_result":["ce/083907_ce.png","gl/083907_gl.png","ours/083907_ours.png"],"rt":7160,"trial_type":"image-rank","trial_index":79,"time_elapsed":513750,"internal_node_id":"0.0-79.0"},{"src":["ours/126574_ours.png","ce/126574_ce.png","gl/126574_gl.png"],"rank_data":[2,1,0],"rank_result":["gl/126574_gl.png","ce/126574_ce.png","ours/126574_ours.png"],"rt":5933,"trial_type":"image-rank","trial_index":80,"time_elapsed":519685,"internal_node_id":"0.0-80.0"},{"src":["gl/077951_gl.png","ce/077951_ce.png","ours/077951_ours.png"],"rank_data":[0,1,2],"rank_result":["gl/077951_gl.png","ce/077951_ce.png","ours/077951_ours.png"],"rt":4066,"trial_type":"image-rank","trial_index":81,"time_elapsed":523752,"internal_node_id":"0.0-81.0"},{"src":["gl/195160_gl.png","ce/195160_ce.png","ours/195160_ours.png"],"rank_data":[0,1,2],"rank_result":["gl/195160_gl.png","ce/195160_ce.png","ours/195160_ours.png"],"rt":3658,"trial_type":"image-rank","trial_index":82,"time_elapsed":527410,"internal_node_id":"0.0-82.0"},{"src":["ours/167118_ours.png","gl/167118_gl.png","ce/167118_ce.png"],"rank_data":[2,0,1],"rank_result":["gl/167118_gl.png","ce/167118_ce.png","ours/167118_ours.png"],"rt":4985,"trial_type":"image-rank","trial_index":83,"time_elapsed":532396,"internal_node_id":"0.0-83.0"},{"src":["ours/083322_ours.png","gl/083322_gl.png","ce/083322_ce.png"],"rank_data":[2,1,0],"rank_result":["ce/083322_ce.png","gl/083322_gl.png","ours/083322_ours.png"],"rt":4171,"trial_type":"image-rank","trial_index":84,"time_elapsed":536568,"internal_node_id":"0.0-84.0"},{"src":["gl/198505_gl.png","ce/198505_ce.png","ours/198505_ours.png"],"rank_data":[1,0,2],"rank_result":["ce/198505_ce.png","gl/198505_gl.png","ours/198505_ours.png"],"rt":6499,"trial_type":"image-rank","trial_index":85,"time_elapsed":543067,"internal_node_id":"0.0-85.0"},{"src":["ours/107414_ours.png","ce/107414_ce.png","gl/107414_gl.png"],"rank_data":[2,0,1],"rank_result":["ce/107414_ce.png","gl/107414_gl.png","ours/107414_ours.png"],"rt":3879,"trial_type":"image-rank","trial_index":86,"time_elapsed":546948,"internal_node_id":"0.0-86.0"},{"src":["ce/124616_ce.png","gl/124616_gl.png","ours/124616_ours.png"],"rank_data":[1,0,2],"rank_result":["gl/124616_gl.png","ce/124616_ce.png","ours/124616_ours.png"],"rt":8762,"trial_type":"image-rank","trial_index":87,"time_elapsed":555710,"internal_node_id":"0.0-87.0"},{"src":["ours/096604_ours.png","gl/096604_gl.png","ce/096604_ce.png"],"rank_data":[2,0,1],"rank_result":["gl/096604_gl.png","ce/096604_ce.png","ours/096604_ours.png"],"rt":2894,"trial_type":"image-rank","trial_index":88,"time_elapsed":558605,"internal_node_id":"0.0-88.0"},{"src":["ce/113147_ce.png","ours/113147_ours.png","gl/113147_gl.png"],"rank_data":[1,2,0],"rank_result":["gl/113147_gl.png","ce/113147_ce.png","ours/113147_ours.png"],"rt":4332,"trial_type":"image-rank","trial_index":89,"time_elapsed":562938,"internal_node_id":"0.0-89.0"},{"src":["ce/132178_ce.png","gl/132178_gl.png","ours/132178_ours.png"],"rank_data":[1,0,2],"rank_result":["gl/132178_gl.png","ce/132178_ce.png","ours/132178_ours.png"],"rt":3864,"trial_type":"image-rank","trial_index":90,"time_elapsed":566803,"internal_node_id":"0.0-90.0"},{"src":["gl/057374_gl.png","ours/057374_ours.png","ce/057374_ce.png"],"rank_data":[1,2,0],"rank_result":["ce/057374_ce.png","gl/057374_gl.png","ours/057374_ours.png"],"rt":4153,"trial_type":"image-rank","trial_index":91,"time_elapsed":570956,"internal_node_id":"0.0-91.0"},{"src":["ours/088221_ours.png","gl/088221_gl.png","ce/088221_ce.png"],"rank_data":[2,0,1],"rank_result":["gl/088221_gl.png","ce/088221_ce.png","ours/088221_ours.png"],"rt":5901,"trial_type":"image-rank","trial_index":92,"time_elapsed":576859,"internal_node_id":"0.0-92.0"},{"src":["ce/173898_ce.png","ours/173898_ours.png","gl/173898_gl.png"],"rank_data":[1,2,0],"rank_result":["gl/173898_gl.png","ce/173898_ce.png","ours/173898_ours.png"],"rt":3968,"trial_type":"image-rank","trial_index":93,"time_elapsed":580827,"internal_node_id":"0.0-93.0"},{"src":["ours/016590_ours.png","ce/016590_ce.png","gl/016590_gl.png"],"rank_data":[2,1,0],"rank_result":["gl/016590_gl.png","ce/016590_ce.png","ours/016590_ours.png"],"rt":3296,"trial_type":"image-rank","trial_index":94,"time_elapsed":584124,"internal_node_id":"0.0-94.0"},{"src":["gl/038942_gl.png","ce/038942_ce.png","ours/038942_ours.png"],"rank_data":[0,1,2],"rank_result":["gl/038942_gl.png","ce/038942_ce.png","ours/038942_ours.png"],"rt":6797,"trial_type":"image-rank","trial_index":95,"time_elapsed":590921,"internal_node_id":"0.0-95.0"},{"src":["ce/067433_ce.png","gl/067433_gl.png","ours/067433_ours.png"],"rank_data":[0,1,2],"rank_result":["ce/067433_ce.png","gl/067433_gl.png","ours/067433_ours.png"],"rt":4837,"trial_type":"image-rank","trial_index":96,"time_elapsed":595759,"internal_node_id":"0.0-96.0"},{"src":["ce/159433_ce.png","ours/159433_ours.png","gl/159433_gl.png"],"rank_data":[1,2,0],"rank_result":["gl/159433_gl.png","ce/159433_ce.png","ours/159433_ours.png"],"rt":4684,"trial_type":"image-rank","trial_index":97,"time_elapsed":600444,"internal_node_id":"0.0-97.0"},{"src":["ours/072850_ours.png","ce/072850_ce.png","gl/072850_gl.png"],"rank_data":[2,1,0],"rank_result":["gl/072850_gl.png","ce/072850_ce.png","ours/072850_ours.png"],"rt":3770,"trial_type":"image-rank","trial_index":98,"time_elapsed":604215,"internal_node_id":"0.0-98.0"},{"src":["gl/148830_gl.png","ours/148830_ours.png","ce/148830_ce.png"],"rank_data":[1,2,0],"rank_result":["ce/148830_ce.png","gl/148830_gl.png","ours/148830_ours.png"],"rt":4033,"trial_type":"image-rank","trial_index":99,"time_elapsed":608250,"internal_node_id":"0.0-99.0"},{"src":["gl/057363_gl.png","ce/057363_ce.png","ours/057363_ours.png"],"rank_data":[0,1,2],"rank_result":["gl/057363_gl.png","ce/057363_ce.png","ours/057363_ours.png"],"rt":6275,"trial_type":"image-rank","trial_index":100,"time_elapsed":614525,"internal_node_id":"0.0-100.0"},{"src":["ce/094923_ce.png","ours/094923_ours.png","gl/094923_gl.png"],"rank_data":[1,2,0],"rank_result":["gl/094923_gl.png","ce/094923_ce.png","ours/094923_ours.png"],"rt":4688,"trial_type":"image-rank","trial_index":101,"time_elapsed":619214,"internal_node_id":"0.0-101.0"},{"src":["gl/033879_gl.png","ours/033879_ours.png","ce/033879_ce.png"],"rank_data":[0,2,1],"rank_result":["gl/033879_gl.png","ce/033879_ce.png","ours/033879_ours.png"],"rt":5903,"trial_type":"image-rank","trial_index":102,"time_elapsed":625118,"internal_node_id":"0.0-102.0"}]