[{"rt":3116,"stimulus":"Welcome to the experiment. Press any key to begin.","key_press":38,"trial_type":"html-keyboard-response","trial_index":0,"time_elapsed":3117,"internal_node_id":"0.0-0.0"},{"rt":2478,"stimulus":"<p>In this experiment, three images of people will appear in the center of the screen.</p><p>Your task is to rank these images based on how <strong>real</strong> you think they are.<p>The ranking level is between 1 to 3, with <strong>1</strong> representing the most real one and <strong>3</strong> the fakest one.</p><p>The time to rank is not limited. When you finish ranking, click the <strong>Continue</strong> button to continue.</p>","key_press":38,"trial_type":"html-keyboard-response","trial_index":1,"time_elapsed":5597,"internal_node_id":"0.0-1.0"},{"rt":null,"stimulus":"<div style=\"font-size:60px;\"></div>","key_press":null,"label":"fixation","trial_type":"html-keyboard-response","trial_index":2,"time_elapsed":6609,"internal_node_id":"0.0-2.0"},{"src":["ce/026510_ce.png","ours/026510_ours.png","gl/026510_gl.png"],"rank_data":[1,0,2],"rank_result":["ours/026510_ours.png","ce/026510_ce.png","gl/026510_gl.png"],"rt":9827,"trial_type":"image-rank","trial_index":3,"time_elapsed":16437,"internal_node_id":"0.0-3.0"},{"src":["ours/138446_ours.png","gl/138446_gl.png","ce/138446_ce.png"],"rank_data":[0,2,1],"rank_result":["ours/138446_ours.png","ce/138446_ce.png","gl/138446_gl.png"],"rt":13968,"trial_type":"image-rank","trial_index":4,"time_elapsed":30405,"internal_node_id":"0.0-4.0"},{"src":["gl/009728_gl.png","ce/009728_ce.png","ours/009728_ours.png"],"rank_data":[2,0,1],"rank_result":["ce/009728_ce.png","ours/009728_ours.png","gl/009728_gl.png"],"rt":7168,"trial_type":"image-rank","trial_index":5,"time_elapsed":37573,"internal_node_id":"0.0-5.0"},{"src":["ours/069118_ours.png","gl/069118_gl.png","ce/069118_ce.png"],"rank_data":[0,2,1],"rank_result":["ours/069118_ours.png","ce/069118_ce.png","gl/069118_gl.png"],"rt":7984,"trial_type":"image-rank","trial_index":6,"time_elapsed":45557,"internal_node_id":"0.0-6.0"},{"src":["ce/118781_ce.png","gl/118781_gl.png","ours/118781_ours.png"],"rank_data":[1,2,0],"rank_result":["ours/118781_ours.png","ce/118781_ce.png","gl/118781_gl.png"],"rt":7112,"trial_type":"image-rank","trial_index":7,"time_elapsed":52669,"internal_node_id":"0.0-7.0"},{"src":["ce/026591_ce.png","gl/026591_gl.png","ours/026591_ours.png"],"rank_data":[1,2,0],"rank_result":["ours/026591_ours.png","ce/026591_ce.png","gl/026591_gl.png"],"rt":3984,"trial_type":"image-rank","trial_index":8,"time_elapsed":56653,"internal_node_id":"0.0-8.0"},{"src":["ours/088664_ours.png","gl/088664_gl.png","ce/088664_ce.png"],"rank_data":[0,2,1],"rank_result":["ours/088664_ours.png","ce/088664_ce.png","gl/088664_gl.png"],"rt":4632,"trial_type":"image-rank","trial_index":9,"time_elapsed":61285,"internal_node_id":"0.0-9.0"},{"src":["gl/195511_gl.png","ours/195511_ours.png","ce/195511_ce.png"],"rank_data":[1,0,2],"rank_result":["ours/195511_ours.png","gl/195511_gl.png","ce/195511_ce.png"],"rt":4816,"trial_type":"image-rank","trial_index":10,"time_elapsed":66101,"internal_node_id":"0.0-10.0"},{"src":["gl/109949_gl.png","ce/109949_ce.png","ours/109949_ours.png"],"rank_data":[2,1,0],"rank_result":["ours/109949_ours.png","ce/109949_ce.png","gl/109949_gl.png"],"rt":4640,"trial_type":"image-rank","trial_index":11,"time_elapsed":70741,"internal_node_id":"0.0-11.0"},{"src":["ours/155104_ours.png","gl/155104_gl.png","ce/155104_ce.png"],"rank_data":[0,2,1],"rank_result":["ours/155104_ours.png","ce/155104_ce.png","gl/155104_gl.png"],"rt":4464,"trial_type":"image-rank","trial_index":12,"time_elapsed":75205,"internal_node_id":"0.0-12.0"},{"src":["ours/047987_ours.png","ce/047987_ce.png","gl/047987_gl.png"],"rank_data":[0,1,2],"rank_result":["ours/047987_ours.png","ce/047987_ce.png","gl/047987_gl.png"],"rt":4840,"trial_type":"image-rank","trial_index":13,"time_elapsed":80045,"internal_node_id":"0.0-13.0"},{"src":["ours/056968_ours.png","ce/056968_ce.png","gl/056968_gl.png"],"rank_data":[0,2,1],"rank_result":["ours/056968_ours.png","gl/056968_gl.png","ce/056968_ce.png"],"rt":4048,"trial_type":"image-rank","trial_index":14,"time_elapsed":84093,"internal_node_id":"0.0-14.0"},{"src":["gl/073778_gl.png","ce/073778_ce.png","ours/073778_ours.png"],"rank_data":[2,1,0],"rank_result":["ours/073778_ours.png","ce/073778_ce.png","gl/073778_gl.png"],"rt":4176,"trial_type":"image-rank","trial_index":15,"time_elapsed":88269,"internal_node_id":"0.0-15.0"},{"src":["ours/041580_ours.png","gl/041580_gl.png","ce/041580_ce.png"],"rank_data":[0,1,2],"rank_result":["ours/041580_ours.png","gl/041580_gl.png","ce/041580_ce.png"],"rt":6576,"trial_type":"image-rank","trial_index":16,"time_elapsed":94845,"internal_node_id":"0.0-16.0"},{"src":["ours/069583_ours.png","ce/069583_ce.png","gl/069583_gl.png"],"rank_data":[0,1,2],"rank_result":["ours/069583_ours.png","ce/069583_ce.png","gl/069583_gl.png"],"rt":14320,"trial_type":"image-rank","trial_index":17,"time_elapsed":109165,"internal_node_id":"0.0-17.0"},{"src":["gl/114764_gl.png","ce/114764_ce.png","ours/114764_ours.png"],"rank_data":[1,2,0],"rank_result":["ours/114764_ours.png","gl/114764_gl.png","ce/114764_ce.png"],"rt":4855,"trial_type":"image-rank","trial_index":18,"time_elapsed":114021,"internal_node_id":"0.0-18.0"},{"src":["ours/117840_ours.png","ce/117840_ce.png","gl/117840_gl.png"],"rank_data":[0,2,1],"rank_result":["ours/117840_ours.png","gl/117840_gl.png","ce/117840_ce.png"],"rt":4704,"trial_type":"image-rank","trial_index":19,"time_elapsed":118725,"internal_node_id":"0.0-19.0"},{"src":["ours/027337_ours.png","gl/027337_gl.png","ce/027337_ce.png"],"rank_data":[0,2,1],"rank_result":["ours/027337_ours.png","ce/027337_ce.png","gl/027337_gl.png"],"rt":9496,"trial_type":"image-rank","trial_index":20,"time_elapsed":128222,"internal_node_id":"0.0-20.0"},{"src":["ce/132527_ce.png","ours/132527_ours.png","gl/132527_gl.png"],"rank_data":[1,0,2],"rank_result":["ours/132527_ours.png","ce/132527_ce.png","gl/132527_gl.png"],"rt":4479,"trial_type":"image-rank","trial_index":21,"time_elapsed":132701,"internal_node_id":"0.0-21.0"},{"src":["ours/054996_ours.png","gl/054996_gl.png","ce/054996_ce.png"],"rank_data":[0,2,1],"rank_result":["ours/054996_ours.png","ce/054996_ce.png","gl/054996_gl.png"],"rt":8512,"trial_type":"image-rank","trial_index":22,"time_elapsed":141213,"internal_node_id":"0.0-22.0"},{"src":["ce/167802_ce.png","gl/167802_gl.png","ours/167802_ours.png"],"rank_data":[1,2,0],"rank_result":["ours/167802_ours.png","ce/167802_ce.png","gl/167802_gl.png"],"rt":5264,"trial_type":"image-rank","trial_index":23,"time_elapsed":146477,"internal_node_id":"0.0-23.0"},{"src":["ours/103061_ours.png","ce/103061_ce.png","gl/103061_gl.png"],"rank_data":[0,1,2],"rank_result":["ours/103061_ours.png","ce/103061_ce.png","gl/103061_gl.png"],"rt":5855,"trial_type":"image-rank","trial_index":24,"time_elapsed":152333,"internal_node_id":"0.0-24.0"},{"src":["ce/122626_ce.png","gl/122626_gl.png","ours/122626_ours.png"],"rank_data":[2,1,0],"rank_result":["ours/122626_ours.png","gl/122626_gl.png","ce/122626_ce.png"],"rt":4720,"trial_type":"image-rank","trial_index":25,"time_elapsed":157053,"internal_node_id":"0.0-25.0"},{"src":["ours/091655_ours.png","ce/091655_ce.png","gl/091655_gl.png"],"rank_data":[0,1,2],"rank_result":["ours/091655_ours.png","ce/091655_ce.png","gl/091655_gl.png"],"rt":9288,"trial_type":"image-rank","trial_index":26,"time_elapsed":166341,"internal_node_id":"0.0-26.0"},{"src":["ce/172278_ce.png","ours/172278_ours.png","gl/172278_gl.png"],"rank_data":[2,0,1],"rank_result":["ours/172278_ours.png","gl/172278_gl.png","ce/172278_ce.png"],"rt":6088,"trial_type":"image-rank","trial_index":27,"time_elapsed":172429,"internal_node_id":"0.0-27.0"},{"src":["ce/159433_ce.png","ours/159433_ours.png","gl/159433_gl.png"],"rank_data":[1,0,2],"rank_result":["ours/159433_ours.png","ce/159433_ce.png","gl/159433_gl.png"],"rt":9568,"trial_type":"image-rank","trial_index":28,"time_elapsed":181997,"internal_node_id":"0.0-28.0"},{"src":["gl/191941_gl.png","ours/191941_ours.png","ce/191941_ce.png"],"rank_data":[2,0,1],"rank_result":["ours/191941_ours.png","ce/191941_ce.png","gl/191941_gl.png"],"rt":4368,"trial_type":"image-rank","trial_index":29,"time_elapsed":186365,"internal_node_id":"0.0-29.0"},{"src":["ce/179028_ce.png","ours/179028_ours.png","gl/179028_gl.png"],"rank_data":[2,0,1],"rank_result":["ours/179028_ours.png","gl/179028_gl.png","ce/179028_ce.png"],"rt":5016,"trial_type":"image-rank","trial_index":30,"time_elapsed":191382,"internal_node_id":"0.0-30.0"},{"src":["ours/020066_ours.png","ce/020066_ce.png","gl/020066_gl.png"],"rank_data":[0,1,2],"rank_result":["ours/020066_ours.png","ce/020066_ce.png","gl/020066_gl.png"],"rt":4951,"trial_type":"image-rank","trial_index":31,"time_elapsed":196333,"internal_node_id":"0.0-31.0"},{"src":["ours/073274_ours.png","gl/073274_gl.png","ce/073274_ce.png"],"rank_data":[0,1,2],"rank_result":["ours/073274_ours.png","gl/073274_gl.png","ce/073274_ce.png"],"rt":3920,"trial_type":"image-rank","trial_index":32,"time_elapsed":200253,"internal_node_id":"0.0-32.0"},{"src":["ce/012279_ce.png","gl/012279_gl.png","ours/012279_ours.png"],"rank_data":[1,2,0],"rank_result":["ours/012279_ours.png","ce/012279_ce.png","gl/012279_gl.png"],"rt":20864,"trial_type":"image-rank","trial_index":33,"time_elapsed":221117,"internal_node_id":"0.0-33.0"},{"src":["ours/113024_ours.png","gl/113024_gl.png","ce/113024_ce.png"],"rank_data":[1,2,0],"rank_result":["ce/113024_ce.png","ours/113024_ours.png","gl/113024_gl.png"],"rt":4488,"trial_type":"image-rank","trial_index":34,"time_elapsed":225605,"internal_node_id":"0.0-34.0"},{"src":["gl/077447_gl.png","ours/077447_ours.png","ce/077447_ce.png"],"rank_data":[1,0,2],"rank_result":["ours/077447_ours.png","gl/077447_gl.png","ce/077447_ce.png"],"rt":5000,"trial_type":"image-rank","trial_index":35,"time_elapsed":230605,"internal_node_id":"0.0-35.0"},{"src":["ce/092307_ce.png","ours/092307_ours.png","gl/092307_gl.png"],"rank_data":[2,1,0],"rank_result":["gl/092307_gl.png","ours/092307_ours.png","ce/092307_ce.png"],"rt":13056,"trial_type":"image-rank","trial_index":36,"time_elapsed":243661,"internal_node_id":"0.0-36.0"},{"src":["ours/002545_ours.png","gl/002545_gl.png","ce/002545_ce.png"],"rank_data":[0,2,1],"rank_result":["ours/002545_ours.png","ce/002545_ce.png","gl/002545_gl.png"],"rt":5432,"trial_type":"image-rank","trial_index":37,"time_elapsed":249093,"internal_node_id":"0.0-37.0"},{"src":["ours/082801_ours.png","ce/082801_ce.png","gl/082801_gl.png"],"rank_data":[0,2,1],"rank_result":["ours/082801_ours.png","gl/082801_gl.png","ce/082801_ce.png"],"rt":7632,"trial_type":"image-rank","trial_index":38,"time_elapsed":256725,"internal_node_id":"0.0-38.0"},{"src":["gl/197201_gl.png","ce/197201_ce.png","ours/197201_ours.png"],"rank_data":[2,1,0],"rank_result":["ours/197201_ours.png","ce/197201_ce.png","gl/197201_gl.png"],"rt":6000,"trial_type":"image-rank","trial_index":39,"time_elapsed":262725,"internal_node_id":"0.0-39.0"},{"src":["ce/009556_ce.png","ours/009556_ours.png","gl/009556_gl.png"],"rank_data":[1,0,2],"rank_result":["ours/009556_ours.png","ce/009556_ce.png","gl/009556_gl.png"],"rt":7256,"trial_type":"image-rank","trial_index":40,"time_elapsed":269981,"internal_node_id":"0.0-40.0"},{"src":["ours/019059_ours.png","ce/019059_ce.png","gl/019059_gl.png"],"rank_data":[0,2,1],"rank_result":["ours/019059_ours.png","gl/019059_gl.png","ce/019059_ce.png"],"rt":3288,"trial_type":"image-rank","trial_index":41,"time_elapsed":273269,"internal_node_id":"0.0-41.0"},{"src":["ours/082245_ours.png","ce/082245_ce.png","gl/082245_gl.png"],"rank_data":[0,1,2],"rank_result":["ours/082245_ours.png","ce/082245_ce.png","gl/082245_gl.png"],"rt":7184,"trial_type":"image-rank","trial_index":42,"time_elapsed":280453,"internal_node_id":"0.0-42.0"},{"src":["gl/116750_gl.png","ours/116750_ours.png","ce/116750_ce.png"],"rank_data":[0,1,2],"rank_result":["gl/116750_gl.png","ours/116750_ours.png","ce/116750_ce.png"],"rt":10768,"trial_type":"image-rank","trial_index":43,"time_elapsed":291221,"internal_node_id":"0.0-43.0"},{"src":["ours/092586_ours.png","gl/092586_gl.png","ce/092586_ce.png"],"rank_data":[0,2,1],"rank_result":["ours/092586_ours.png","ce/092586_ce.png","gl/092586_gl.png"],"rt":3224,"trial_type":"image-rank","trial_index":44,"time_elapsed":294445,"internal_node_id":"0.0-44.0"},{"src":["ce/162072_ce.png","ours/162072_ours.png","gl/162072_gl.png"],"rank_data":[1,0,2],"rank_result":["ours/162072_ours.png","ce/162072_ce.png","gl/162072_gl.png"],"rt":3496,"trial_type":"image-rank","trial_index":45,"time_elapsed":297941,"internal_node_id":"0.0-45.0"},{"src":["ce/187724_ce.png","ours/187724_ours.png","gl/187724_gl.png"],"rank_data":[1,0,2],"rank_result":["ours/187724_ours.png","ce/187724_ce.png","gl/187724_gl.png"],"rt":3784,"trial_type":"image-rank","trial_index":46,"time_elapsed":301725,"internal_node_id":"0.0-46.0"},{"src":["gl/045769_gl.png","ours/045769_ours.png","ce/045769_ce.png"],"rank_data":[2,0,1],"rank_result":["ours/045769_ours.png","ce/045769_ce.png","gl/045769_gl.png"],"rt":6088,"trial_type":"image-rank","trial_index":47,"time_elapsed":307813,"internal_node_id":"0.0-47.0"},{"src":["ce/176555_ce.png","gl/176555_gl.png","ours/176555_ours.png"],"rank_data":[2,1,0],"rank_result":["ours/176555_ours.png","gl/176555_gl.png","ce/176555_ce.png"],"rt":4400,"trial_type":"image-rank","trial_index":48,"time_elapsed":312213,"internal_node_id":"0.0-48.0"},{"src":["ours/160803_ours.png","gl/160803_gl.png","ce/160803_ce.png"],"rank_data":[0,1,2],"rank_result":["ours/160803_ours.png","gl/160803_gl.png","ce/160803_ce.png"],"rt":2904,"trial_type":"image-rank","trial_index":49,"time_elapsed":315117,"internal_node_id":"0.0-49.0"},{"src":["gl/080143_gl.png","ce/080143_ce.png","ours/080143_ours.png"],"rank_data":[1,2,0],"rank_result":["ours/080143_ours.png","gl/080143_gl.png","ce/080143_ce.png"],"rt":4064,"trial_type":"image-rank","trial_index":50,"time_elapsed":319181,"internal_node_id":"0.0-50.0"},{"src":["ce/055302_ce.png","ours/055302_ours.png","gl/055302_gl.png"],"rank_data":[1,0,2],"rank_result":["ours/055302_ours.png","ce/055302_ce.png","gl/055302_gl.png"],"rt":4336,"trial_type":"image-rank","trial_index":51,"time_elapsed":323517,"internal_node_id":"0.0-51.0"},{"src":["ce/183750_ce.png","gl/183750_gl.png","ours/183750_ours.png"],"rank_data":[1,2,0],"rank_result":["ours/183750_ours.png","ce/183750_ce.png","gl/183750_gl.png"],"rt":3432,"trial_type":"image-rank","trial_index":52,"time_elapsed":326949,"internal_node_id":"0.0-52.0"},{"src":["ce/015309_ce.png","gl/015309_gl.png","ours/015309_ours.png"],"rank_data":[1,2,0],"rank_result":["ours/015309_ours.png","ce/015309_ce.png","gl/015309_gl.png"],"rt":3512,"trial_type":"image-rank","trial_index":53,"time_elapsed":330461,"internal_node_id":"0.0-53.0"},{"src":["gl/182778_gl.png","ours/182778_ours.png","ce/182778_ce.png"],"rank_data":[1,0,2],"rank_result":["ours/182778_ours.png","gl/182778_gl.png","ce/182778_ce.png"],"rt":3240,"trial_type":"image-rank","trial_index":54,"time_elapsed":333701,"internal_node_id":"0.0-54.0"},{"src":["ce/187257_ce.png","ours/187257_ours.png","gl/187257_gl.png"],"rank_data":[1,0,2],"rank_result":["ours/187257_ours.png","ce/187257_ce.png","gl/187257_gl.png"],"rt":3488,"trial_type":"image-rank","trial_index":55,"time_elapsed":337189,"internal_node_id":"0.0-55.0"},{"src":["ours/171449_ours.png","gl/171449_gl.png","ce/171449_ce.png"],"rank_data":[0,2,1],"rank_result":["ours/171449_ours.png","ce/171449_ce.png","gl/171449_gl.png"],"rt":3744,"trial_type":"image-rank","trial_index":56,"time_elapsed":340934,"internal_node_id":"0.0-56.0"},{"src":["gl/028746_gl.png","ours/028746_ours.png","ce/028746_ce.png"],"rank_data":[1,0,2],"rank_result":["ours/028746_ours.png","gl/028746_gl.png","ce/028746_ce.png"],"rt":15344,"trial_type":"image-rank","trial_index":57,"time_elapsed":356278,"internal_node_id":"0.0-57.0"},{"src":["gl/173880_gl.png","ours/173880_ours.png","ce/173880_ce.png"],"rank_data":[1,0,2],"rank_result":["ours/173880_ours.png","gl/173880_gl.png","ce/173880_ce.png"],"rt":7688,"trial_type":"image-rank","trial_index":58,"time_elapsed":363966,"internal_node_id":"0.0-58.0"},{"src":["ours/200954_ours.png","ce/200954_ce.png","gl/200954_gl.png"],"rank_data":[0,1,2],"rank_result":["ours/200954_ours.png","ce/200954_ce.png","gl/200954_gl.png"],"rt":4239,"trial_type":"image-rank","trial_index":59,"time_elapsed":368206,"internal_node_id":"0.0-59.0"},{"src":["ce/112900_ce.png","gl/112900_gl.png","ours/112900_ours.png"],"rank_data":[1,2,0],"rank_result":["ours/112900_ours.png","ce/112900_ce.png","gl/112900_gl.png"],"rt":5959,"trial_type":"image-rank","trial_index":60,"time_elapsed":374166,"internal_node_id":"0.0-60.0"},{"src":["ours/127230_ours.png","gl/127230_gl.png","ce/127230_ce.png"],"rank_data":[0,2,1],"rank_result":["ours/127230_ours.png","ce/127230_ce.png","gl/127230_gl.png"],"rt":6544,"trial_type":"image-rank","trial_index":61,"time_elapsed":380710,"internal_node_id":"0.0-61.0"},{"src":["ce/128325_ce.png","ours/128325_ours.png","gl/128325_gl.png"],"rank_data":[2,0,1],"rank_result":["ours/128325_ours.png","gl/128325_gl.png","ce/128325_ce.png"],"rt":3671,"trial_type":"image-rank","trial_index":62,"time_elapsed":384382,"internal_node_id":"0.0-62.0"},{"src":["gl/196288_gl.png","ce/196288_ce.png","ours/196288_ours.png"],"rank_data":[2,1,0],"rank_result":["ours/196288_ours.png","ce/196288_ce.png","gl/196288_gl.png"],"rt":3543,"trial_type":"image-rank","trial_index":63,"time_elapsed":387926,"internal_node_id":"0.0-63.0"},{"src":["gl/107980_gl.png","ce/107980_ce.png","ours/107980_ours.png"],"rank_data":[2,1,0],"rank_result":["ours/107980_ours.png","ce/107980_ce.png","gl/107980_gl.png"],"rt":7191,"trial_type":"image-rank","trial_index":64,"time_elapsed":395118,"internal_node_id":"0.0-64.0"},{"src":["gl/180592_gl.png","ce/180592_ce.png","ours/180592_ours.png"],"rank_data":[1,2,0],"rank_result":["ours/180592_ours.png","gl/180592_gl.png","ce/180592_ce.png"],"rt":3416,"trial_type":"image-rank","trial_index":65,"time_elapsed":398534,"internal_node_id":"0.0-65.0"},{"src":["gl/181703_gl.png","ce/181703_ce.png","ours/181703_ours.png"],"rank_data":[1,0,2],"rank_result":["ce/181703_ce.png","gl/181703_gl.png","ours/181703_ours.png"],"rt":14247,"trial_type":"image-rank","trial_index":66,"time_elapsed":412782,"internal_node_id":"0.0-66.0"},{"src":["ours/034710_ours.png","ce/034710_ce.png","gl/034710_gl.png"],"rank_data":[0,1,2],"rank_result":["ours/034710_ours.png","ce/034710_ce.png","gl/034710_gl.png"],"rt":3574,"trial_type":"image-rank","trial_index":67,"time_elapsed":416358,"internal_node_id":"0.0-67.0"},{"src":["gl/090865_gl.png","ours/090865_ours.png","ce/090865_ce.png"],"rank_data":[2,0,1],"rank_result":["ours/090865_ours.png","ce/090865_ce.png","gl/090865_gl.png"],"rt":6255,"trial_type":"image-rank","trial_index":68,"time_elapsed":422614,"internal_node_id":"0.0-68.0"},{"src":["ours/171650_ours.png","ce/171650_ce.png","gl/171650_gl.png"],"rank_data":[0,2,1],"rank_result":["ours/171650_ours.png","gl/171650_gl.png","ce/171650_ce.png"],"rt":3311,"trial_type":"image-rank","trial_index":69,"time_elapsed":425925,"internal_node_id":"0.0-69.0"},{"src":["ce/002055_ce.png","gl/002055_gl.png","ours/002055_ours.png"],"rank_data":[1,2,0],"rank_result":["ours/002055_ours.png","ce/002055_ce.png","gl/002055_gl.png"],"rt":4231,"trial_type":"image-rank","trial_index":70,"time_elapsed":430158,"internal_node_id":"0.0-70.0"},{"src":["gl/001418_gl.png","ce/001418_ce.png","ours/001418_ours.png"],"rank_data":[1,2,0],"rank_result":["ours/001418_ours.png","gl/001418_gl.png","ce/001418_ce.png"],"rt":3831,"trial_type":"image-rank","trial_index":71,"time_elapsed":433990,"internal_node_id":"0.0-71.0"},{"src":["ce/138238_ce.png","ours/138238_ours.png","gl/138238_gl.png"],"rank_data":[1,2,0],"rank_result":["gl/138238_gl.png","ce/138238_ce.png","ours/138238_ours.png"],"rt":11399,"trial_type":"image-rank","trial_index":72,"time_elapsed":445390,"internal_node_id":"0.0-72.0"},{"src":["gl/099145_gl.png","ours/099145_ours.png","ce/099145_ce.png"],"rank_data":[1,0,2],"rank_result":["ours/099145_ours.png","gl/099145_gl.png","ce/099145_ce.png"],"rt":5495,"trial_type":"image-rank","trial_index":73,"time_elapsed":450886,"internal_node_id":"0.0-73.0"},{"src":["ours/135013_ours.png","ce/135013_ce.png","gl/135013_gl.png"],"rank_data":[0,1,2],"rank_result":["ours/135013_ours.png","ce/135013_ce.png","gl/135013_gl.png"],"rt":5023,"trial_type":"image-rank","trial_index":74,"time_elapsed":455909,"internal_node_id":"0.0-74.0"},{"src":["ours/116213_ours.png","ce/116213_ce.png","gl/116213_gl.png"],"rank_data":[0,2,1],"rank_result":["ours/116213_ours.png","gl/116213_gl.png","ce/116213_ce.png"],"rt":4719,"trial_type":"image-rank","trial_index":75,"time_elapsed":460630,"internal_node_id":"0.0-75.0"},{"src":["gl/048969_gl.png","ce/048969_ce.png","ours/048969_ours.png"],"rank_data":[2,1,0],"rank_result":["ours/048969_ours.png","ce/048969_ce.png","gl/048969_gl.png"],"rt":3351,"trial_type":"image-rank","trial_index":76,"time_elapsed":463982,"internal_node_id":"0.0-76.0"},{"src":["ce/187118_ce.png","ours/187118_ours.png","gl/187118_gl.png"],"rank_data":[2,0,1],"rank_result":["ours/187118_ours.png","gl/187118_gl.png","ce/187118_ce.png"],"rt":3231,"trial_type":"image-rank","trial_index":77,"time_elapsed":467214,"internal_node_id":"0.0-77.0"},{"src":["ours/044769_ours.png","ce/044769_ce.png","gl/044769_gl.png"],"rank_data":[0,1,2],"rank_result":["ours/044769_ours.png","ce/044769_ce.png","gl/044769_gl.png"],"rt":5455,"trial_type":"image-rank","trial_index":78,"time_elapsed":472670,"internal_node_id":"0.0-78.0"},{"src":["ours/042576_ours.png","gl/042576_gl.png","ce/042576_ce.png"],"rank_data":[1,0,2],"rank_result":["gl/042576_gl.png","ours/042576_ours.png","ce/042576_ce.png"],"rt":6712,"trial_type":"image-rank","trial_index":79,"time_elapsed":479382,"internal_node_id":"0.0-79.0"},{"src":["ce/137212_ce.png","gl/137212_gl.png","ours/137212_ours.png"],"rank_data":[1,2,0],"rank_result":["ours/137212_ours.png","ce/137212_ce.png","gl/137212_gl.png"],"rt":4439,"trial_type":"image-rank","trial_index":80,"time_elapsed":483822,"internal_node_id":"0.0-80.0"},{"src":["gl/121286_gl.png","ours/121286_ours.png","ce/121286_ce.png"],"rank_data":[2,0,1],"rank_result":["ours/121286_ours.png","ce/121286_ce.png","gl/121286_gl.png"],"rt":6959,"trial_type":"image-rank","trial_index":81,"time_elapsed":490782,"internal_node_id":"0.0-81.0"},{"src":["ce/088675_ce.png","ours/088675_ours.png","gl/088675_gl.png"],"rank_data":[1,0,2],"rank_result":["ours/088675_ours.png","ce/088675_ce.png","gl/088675_gl.png"],"rt":5215,"trial_type":"image-rank","trial_index":82,"time_elapsed":495998,"internal_node_id":"0.0-82.0"},{"src":["ce/049462_ce.png","gl/049462_gl.png","ours/049462_ours.png"],"rank_data":[1,2,0],"rank_result":["ours/049462_ours.png","ce/049462_ce.png","gl/049462_gl.png"],"rt":4383,"trial_type":"image-rank","trial_index":83,"time_elapsed":500382,"internal_node_id":"0.0-83.0"},{"src":["ce/145857_ce.png","ours/145857_ours.png","gl/145857_gl.png"],"rank_data":[1,0,2],"rank_result":["ours/145857_ours.png","ce/145857_ce.png","gl/145857_gl.png"],"rt":10871,"trial_type":"image-rank","trial_index":84,"time_elapsed":511254,"internal_node_id":"0.0-84.0"},{"src":["ce/138925_ce.png","gl/138925_gl.png","ours/138925_ours.png"],"rank_data":[1,2,0],"rank_result":["ours/138925_ours.png","ce/138925_ce.png","gl/138925_gl.png"],"rt":5192,"trial_type":"image-rank","trial_index":85,"time_elapsed":516446,"internal_node_id":"0.0-85.0"},{"src":["ours/181974_ours.png","ce/181974_ce.png","gl/181974_gl.png"],"rank_data":[0,1,2],"rank_result":["ours/181974_ours.png","ce/181974_ce.png","gl/181974_gl.png"],"rt":6120,"trial_type":"image-rank","trial_index":86,"time_elapsed":522566,"internal_node_id":"0.0-86.0"},{"src":["ours/016692_ours.png","gl/016692_gl.png","ce/016692_ce.png"],"rank_data":[0,1,2],"rank_result":["ours/016692_ours.png","gl/016692_gl.png","ce/016692_ce.png"],"rt":5440,"trial_type":"image-rank","trial_index":87,"time_elapsed":528006,"internal_node_id":"0.0-87.0"},{"src":["ours/122851_ours.png","ce/122851_ce.png","gl/122851_gl.png"],"rank_data":[0,2,1],"rank_result":["ours/122851_ours.png","gl/122851_gl.png","ce/122851_ce.png"],"rt":8056,"trial_type":"image-rank","trial_index":88,"time_elapsed":536062,"internal_node_id":"0.0-88.0"},{"src":["gl/030516_gl.png","ours/030516_ours.png","ce/030516_ce.png"],"rank_data":[2,0,1],"rank_result":["ours/030516_ours.png","ce/030516_ce.png","gl/030516_gl.png"],"rt":7888,"trial_type":"image-rank","trial_index":89,"time_elapsed":543950,"internal_node_id":"0.0-89.0"},{"src":["ce/077112_ce.png","ours/077112_ours.png","gl/077112_gl.png"],"rank_data":[2,0,1],"rank_result":["ours/077112_ours.png","gl/077112_gl.png","ce/077112_ce.png"],"rt":7456,"trial_type":"image-rank","trial_index":90,"time_elapsed":551406,"internal_node_id":"0.0-90.0"},{"src":["ours/035625_ours.png","ce/035625_ce.png","gl/035625_gl.png"],"rank_data":[0,1,2],"rank_result":["ours/035625_ours.png","ce/035625_ce.png","gl/035625_gl.png"],"rt":6472,"trial_type":"image-rank","trial_index":91,"time_elapsed":557878,"internal_node_id":"0.0-91.0"},{"src":["ours/064834_ours.png","gl/064834_gl.png","ce/064834_ce.png"],"rank_data":[0,1,2],"rank_result":["ours/064834_ours.png","gl/064834_gl.png","ce/064834_ce.png"],"rt":3472,"trial_type":"image-rank","trial_index":92,"time_elapsed":561350,"internal_node_id":"0.0-92.0"},{"src":["gl/007169_gl.png","ce/007169_ce.png","ours/007169_ours.png"],"rank_data":[2,1,0],"rank_result":["ours/007169_ours.png","ce/007169_ce.png","gl/007169_gl.png"],"rt":3662,"trial_type":"image-rank","trial_index":93,"time_elapsed":565014,"internal_node_id":"0.0-93.0"},{"src":["gl/037491_gl.png","ours/037491_ours.png","ce/037491_ce.png"],"rank_data":[1,0,2],"rank_result":["ours/037491_ours.png","gl/037491_gl.png","ce/037491_ce.png"],"rt":6560,"trial_type":"image-rank","trial_index":94,"time_elapsed":571574,"internal_node_id":"0.0-94.0"},{"src":["gl/032314_gl.png","ce/032314_ce.png","ours/032314_ours.png"],"rank_data":[2,1,0],"rank_result":["ours/032314_ours.png","ce/032314_ce.png","gl/032314_gl.png"],"rt":3744,"trial_type":"image-rank","trial_index":95,"time_elapsed":575318,"internal_node_id":"0.0-95.0"},{"src":["ours/182290_ours.png","ce/182290_ce.png","gl/182290_gl.png"],"rank_data":[1,2,0],"rank_result":["gl/182290_gl.png","ours/182290_ours.png","ce/182290_ce.png"],"rt":16528,"trial_type":"image-rank","trial_index":96,"time_elapsed":591846,"internal_node_id":"0.0-96.0"},{"src":["gl/046437_gl.png","ours/046437_ours.png","ce/046437_ce.png"],"rank_data":[0,1,2],"rank_result":["gl/046437_gl.png","ours/046437_ours.png","ce/046437_ce.png"],"rt":3431,"trial_type":"image-rank","trial_index":97,"time_elapsed":595278,"internal_node_id":"0.0-97.0"},{"src":["ours/174545_ours.png","gl/174545_gl.png","ce/174545_ce.png"],"rank_data":[0,1,2],"rank_result":["ours/174545_ours.png","gl/174545_gl.png","ce/174545_ce.png"],"rt":4056,"trial_type":"image-rank","trial_index":98,"time_elapsed":599334,"internal_node_id":"0.0-98.0"},{"src":["ce/132078_ce.png","gl/132078_gl.png","ours/132078_ours.png"],"rank_data":[2,1,0],"rank_result":["ours/132078_ours.png","gl/132078_gl.png","ce/132078_ce.png"],"rt":4616,"trial_type":"image-rank","trial_index":99,"time_elapsed":603950,"internal_node_id":"0.0-99.0"},{"src":["gl/135724_gl.png","ce/135724_ce.png","ours/135724_ours.png"],"rank_data":[2,1,0],"rank_result":["ours/135724_ours.png","ce/135724_ce.png","gl/135724_gl.png"],"rt":4408,"trial_type":"image-rank","trial_index":100,"time_elapsed":608358,"internal_node_id":"0.0-100.0"},{"src":["gl/030666_gl.png","ours/030666_ours.png","ce/030666_ce.png"],"rank_data":[2,0,1],"rank_result":["ours/030666_ours.png","ce/030666_ce.png","gl/030666_gl.png"],"rt":2840,"trial_type":"image-rank","trial_index":101,"time_elapsed":611198,"internal_node_id":"0.0-101.0"},{"src":["gl/007084_gl.png","ours/007084_ours.png","ce/007084_ce.png"],"rank_data":[1,0,2],"rank_result":["ours/007084_ours.png","gl/007084_gl.png","ce/007084_ce.png"],"rt":5535,"trial_type":"image-rank","trial_index":102,"time_elapsed":616734,"internal_node_id":"0.0-102.0"}]