[{"rt":30726,"stimulus":"Welcome to the experiment. Press any key to begin.","key_press":32,"trial_type":"html-keyboard-response","trial_index":0,"time_elapsed":30729,"internal_node_id":"0.0-0.0"},{"rt":709,"stimulus":"<p>In this experiment, three images of people will appear in the center of the screen.</p><p>Your task is to rank these images based on how <strong>real</strong> you think they are.<p>The ranking level is between 1 to 3, with <strong>1</strong> representing the most realistic one and <strong>3</strong> the least realistic one.</p><p>There are totally 100 groups of images. The time to rank is not limited. </p> <p>When you finish one group, click the <strong>Continue</strong> button to continue to the next one.</p><p>At the end of the experiment, your name and age will be asked and recorded.</p>","key_press":32,"trial_type":"html-keyboard-response","trial_index":1,"time_elapsed":31439,"internal_node_id":"0.0-1.0"},{"rt":null,"stimulus":"<div style=\"font-size:60px;\"></div>","key_press":null,"trial_type":"html-keyboard-response","trial_index":2,"time_elapsed":32049,"internal_node_id":"0.0-2.0"},{"src":["ours/190780_ours.png","ce/190780_ce.png","gl/190780_gl.png"],"rank_data":[0,1,2],"rank_result":["ours/190780_ours.png","ce/190780_ce.png","gl/190780_gl.png"],"rt":9369,"trial_type":"image-rank","trial_index":3,"time_elapsed":41419,"internal_node_id":"0.0-3.0"},{"src":["gl/095282_gl.png","ours/095282_ours.png","ce/095282_ce.png"],"rank_data":[1,0,2],"rank_result":["ours/095282_ours.png","gl/095282_gl.png","ce/095282_ce.png"],"rt":5868,"trial_type":"image-rank","trial_index":4,"time_elapsed":47288,"internal_node_id":"0.0-4.0"},{"src":["ce/200550_ce.png","gl/200550_gl.png","ours/200550_ours.png"],"rank_data":[2,0,1],"rank_result":["gl/200550_gl.png","ours/200550_ours.png","ce/200550_ce.png"],"rt":7348,"trial_type":"image-rank","trial_index":5,"time_elapsed":54637,"internal_node_id":"0.0-5.0"},{"src":["gl/092133_gl.png","ce/092133_ce.png","ours/092133_ours.png"],"rank_data":[2,0,1],"rank_result":["ce/092133_ce.png","ours/092133_ours.png","gl/092133_gl.png"],"rt":5850,"trial_type":"image-rank","trial_index":6,"time_elapsed":60488,"internal_node_id":"0.0-6.0"},{"src":["ce/168732_ce.png","ours/168732_ours.png","gl/168732_gl.png"],"rank_data":[1,0,2],"rank_result":["ours/168732_ours.png","ce/168732_ce.png","gl/168732_gl.png"],"rt":5416,"trial_type":"image-rank","trial_index":7,"time_elapsed":65904,"internal_node_id":"0.0-7.0"},{"src":["ce/119181_ce.png","gl/119181_gl.png","ours/119181_ours.png"],"rank_data":[2,1,0],"rank_result":["ours/119181_ours.png","gl/119181_gl.png","ce/119181_ce.png"],"rt":4167,"trial_type":"image-rank","trial_index":8,"time_elapsed":70072,"internal_node_id":"0.0-8.0"},{"src":["ours/055891_ours.png","gl/055891_gl.png","ce/055891_ce.png"],"rank_data":[0,1,2],"rank_result":["ours/055891_ours.png","gl/055891_gl.png","ce/055891_ce.png"],"rt":5037,"trial_type":"image-rank","trial_index":9,"time_elapsed":75110,"internal_node_id":"0.0-9.0"},{"src":["ours/159433_ours.png","ce/159433_ce.png","gl/159433_gl.png"],"rank_data":[0,1,2],"rank_result":["ours/159433_ours.png","ce/159433_ce.png","gl/159433_gl.png"],"rt":4146,"trial_type":"image-rank","trial_index":10,"time_elapsed":79257,"internal_node_id":"0.0-10.0"},{"src":["ours/092278_ours.png","ce/092278_ce.png","gl/092278_gl.png"],"rank_data":[1,0,2],"rank_result":["ce/092278_ce.png","ours/092278_ours.png","gl/092278_gl.png"],"rt":3799,"trial_type":"image-rank","trial_index":11,"time_elapsed":83057,"internal_node_id":"0.0-11.0"},{"src":["ce/053586_ce.png","ours/053586_ours.png","gl/053586_gl.png"],"rank_data":[2,0,1],"rank_result":["ours/053586_ours.png","gl/053586_gl.png","ce/053586_ce.png"],"rt":6467,"trial_type":"image-rank","trial_index":12,"time_elapsed":89525,"internal_node_id":"0.0-12.0"},{"src":["ours/144799_ours.png","ce/144799_ce.png","gl/144799_gl.png"],"rank_data":[2,0,1],"rank_result":["ce/144799_ce.png","gl/144799_gl.png","ours/144799_ours.png"],"rt":4683,"trial_type":"image-rank","trial_index":13,"time_elapsed":94209,"internal_node_id":"0.0-13.0"},{"src":["ours/101871_ours.png","ce/101871_ce.png","gl/101871_gl.png"],"rank_data":[0,2,1],"rank_result":["ours/101871_ours.png","gl/101871_gl.png","ce/101871_ce.png"],"rt":6216,"trial_type":"image-rank","trial_index":14,"time_elapsed":100425,"internal_node_id":"0.0-14.0"},{"src":["ce/023299_ce.png","ours/023299_ours.png","gl/023299_gl.png"],"rank_data":[1,0,2],"rank_result":["ours/023299_ours.png","ce/023299_ce.png","gl/023299_gl.png"],"rt":4093,"trial_type":"image-rank","trial_index":15,"time_elapsed":104518,"internal_node_id":"0.0-15.0"},{"src":["gl/058959_gl.png","ce/058959_ce.png","ours/058959_ours.png"],"rank_data":[1,2,0],"rank_result":["ours/058959_ours.png","gl/058959_gl.png","ce/058959_ce.png"],"rt":3532,"trial_type":"image-rank","trial_index":16,"time_elapsed":108051,"internal_node_id":"0.0-16.0"},{"src":["ce/127712_ce.png","ours/127712_ours.png","gl/127712_gl.png"],"rank_data":[1,0,2],"rank_result":["ours/127712_ours.png","ce/127712_ce.png","gl/127712_gl.png"],"rt":4076,"trial_type":"image-rank","trial_index":17,"time_elapsed":112127,"internal_node_id":"0.0-17.0"},{"src":["ours/125631_ours.png","gl/125631_gl.png","ce/125631_ce.png"],"rank_data":[0,2,1],"rank_result":["ours/125631_ours.png","ce/125631_ce.png","gl/125631_gl.png"],"rt":6500,"trial_type":"image-rank","trial_index":18,"time_elapsed":118628,"internal_node_id":"0.0-18.0"},{"src":["ce/015573_ce.png","gl/015573_gl.png","ours/015573_ours.png"],"rank_data":[0,2,1],"rank_result":["ce/015573_ce.png","ours/015573_ours.png","gl/015573_gl.png"],"rt":4323,"trial_type":"image-rank","trial_index":19,"time_elapsed":122953,"internal_node_id":"0.0-19.0"},{"src":["ours/169010_ours.png","ce/169010_ce.png","gl/169010_gl.png"],"rank_data":[1,0,2],"rank_result":["ce/169010_ce.png","ours/169010_ours.png","gl/169010_gl.png"],"rt":3993,"trial_type":"image-rank","trial_index":20,"time_elapsed":126946,"internal_node_id":"0.0-20.0"},{"src":["ours/158800_ours.png","gl/158800_gl.png","ce/158800_ce.png"],"rank_data":[0,2,1],"rank_result":["ours/158800_ours.png","ce/158800_ce.png","gl/158800_gl.png"],"rt":4256,"trial_type":"image-rank","trial_index":21,"time_elapsed":131204,"internal_node_id":"0.0-21.0"},{"src":["gl/008785_gl.png","ours/008785_ours.png","ce/008785_ce.png"],"rank_data":[2,0,1],"rank_result":["ours/008785_ours.png","ce/008785_ce.png","gl/008785_gl.png"],"rt":3533,"trial_type":"image-rank","trial_index":22,"time_elapsed":134738,"internal_node_id":"0.0-22.0"},{"src":["ours/114596_ours.png","gl/114596_gl.png","ce/114596_ce.png"],"rank_data":[0,1,2],"rank_result":["ours/114596_ours.png","gl/114596_gl.png","ce/114596_ce.png"],"rt":4661,"trial_type":"image-rank","trial_index":23,"time_elapsed":139400,"internal_node_id":"0.0-23.0"},{"src":["ours/035834_ours.png","gl/035834_gl.png","ce/035834_ce.png"],"rank_data":[0,1,2],"rank_result":["ours/035834_ours.png","gl/035834_gl.png","ce/035834_ce.png"],"rt":4038,"trial_type":"image-rank","trial_index":24,"time_elapsed":143438,"internal_node_id":"0.0-24.0"},{"src":["ce/061970_ce.png","ours/061970_ours.png","gl/061970_gl.png"],"rank_data":[1,2,0],"rank_result":["gl/061970_gl.png","ce/061970_ce.png","ours/061970_ours.png"],"rt":3893,"trial_type":"image-rank","trial_index":25,"time_elapsed":147332,"internal_node_id":"0.0-25.0"},{"src":["ours/077152_ours.png","ce/077152_ce.png","gl/077152_gl.png"],"rank_data":[0,1,2],"rank_result":["ours/077152_ours.png","ce/077152_ce.png","gl/077152_gl.png"],"rt":3134,"trial_type":"image-rank","trial_index":26,"time_elapsed":150467,"internal_node_id":"0.0-26.0"},{"src":["ce/009501_ce.png","gl/009501_gl.png","ours/009501_ours.png"],"rank_data":[1,2,0],"rank_result":["ours/009501_ours.png","ce/009501_ce.png","gl/009501_gl.png"],"rt":5516,"trial_type":"image-rank","trial_index":27,"time_elapsed":155983,"internal_node_id":"0.0-27.0"},{"src":["ce/000172_ce.png","ours/000172_ours.png","gl/000172_gl.png"],"rank_data":[1,0,2],"rank_result":["ours/000172_ours.png","ce/000172_ce.png","gl/000172_gl.png"],"rt":5804,"trial_type":"image-rank","trial_index":28,"time_elapsed":161788,"internal_node_id":"0.0-28.0"},{"src":["ce/013152_ce.png","gl/013152_gl.png","ours/013152_ours.png"],"rank_data":[2,1,0],"rank_result":["ours/013152_ours.png","gl/013152_gl.png","ce/013152_ce.png"],"rt":4999,"trial_type":"image-rank","trial_index":29,"time_elapsed":166788,"internal_node_id":"0.0-29.0"},{"src":["gl/066316_gl.png","ce/066316_ce.png","ours/066316_ours.png"],"rank_data":[2,1,0],"rank_result":["ours/066316_ours.png","ce/066316_ce.png","gl/066316_gl.png"],"rt":8457,"trial_type":"image-rank","trial_index":30,"time_elapsed":175245,"internal_node_id":"0.0-30.0"},{"src":["gl/201016_gl.png","ce/201016_ce.png","ours/201016_ours.png"],"rank_data":[1,2,0],"rank_result":["ours/201016_ours.png","gl/201016_gl.png","ce/201016_ce.png"],"rt":7958,"trial_type":"image-rank","trial_index":31,"time_elapsed":183203,"internal_node_id":"0.0-31.0"},{"src":["ours/014616_ours.png","gl/014616_gl.png","ce/014616_ce.png"],"rank_data":[0,1,2],"rank_result":["ours/014616_ours.png","gl/014616_gl.png","ce/014616_ce.png"],"rt":4491,"trial_type":"image-rank","trial_index":32,"time_elapsed":187696,"internal_node_id":"0.0-32.0"},{"src":["gl/068297_gl.png","ce/068297_ce.png","ours/068297_ours.png"],"rank_data":[0,1,2],"rank_result":["gl/068297_gl.png","ce/068297_ce.png","ours/068297_ours.png"],"rt":4318,"trial_type":"image-rank","trial_index":33,"time_elapsed":192014,"internal_node_id":"0.0-33.0"},{"src":["gl/176294_gl.png","ours/176294_ours.png","ce/176294_ce.png"],"rank_data":[1,0,2],"rank_result":["ours/176294_ours.png","gl/176294_gl.png","ce/176294_ce.png"],"rt":4981,"trial_type":"image-rank","trial_index":34,"time_elapsed":196997,"internal_node_id":"0.0-34.0"},{"src":["ce/070775_ce.png","ours/070775_ours.png","gl/070775_gl.png"],"rank_data":[2,1,0],"rank_result":["gl/070775_gl.png","ours/070775_ours.png","ce/070775_ce.png"],"rt":13466,"trial_type":"image-rank","trial_index":35,"time_elapsed":210463,"internal_node_id":"0.0-35.0"},{"src":["gl/078583_gl.png","ce/078583_ce.png","ours/078583_ours.png"],"rank_data":[0,1,2],"rank_result":["gl/078583_gl.png","ce/078583_ce.png","ours/078583_ours.png"],"rt":9894,"trial_type":"image-rank","trial_index":36,"time_elapsed":220358,"internal_node_id":"0.0-36.0"},{"src":["gl/134738_gl.png","ours/134738_ours.png","ce/134738_ce.png"],"rank_data":[0,1,2],"rank_result":["gl/134738_gl.png","ours/134738_ours.png","ce/134738_ce.png"],"rt":5571,"trial_type":"image-rank","trial_index":37,"time_elapsed":225930,"internal_node_id":"0.0-37.0"},{"src":["ours/182813_ours.png","ce/182813_ce.png","gl/182813_gl.png"],"rank_data":[2,1,0],"rank_result":["gl/182813_gl.png","ce/182813_ce.png","ours/182813_ours.png"],"rt":5985,"trial_type":"image-rank","trial_index":38,"time_elapsed":231916,"internal_node_id":"0.0-38.0"},{"src":["ours/058441_ours.png","ce/058441_ce.png","gl/058441_gl.png"],"rank_data":[0,1,2],"rank_result":["ours/058441_ours.png","ce/058441_ce.png","gl/058441_gl.png"],"rt":4778,"trial_type":"image-rank","trial_index":39,"time_elapsed":236696,"internal_node_id":"0.0-39.0"},{"src":["gl/046290_gl.png","ours/046290_ours.png","ce/046290_ce.png"],"rank_data":[2,1,0],"rank_result":["ce/046290_ce.png","ours/046290_ours.png","gl/046290_gl.png"],"rt":6448,"trial_type":"image-rank","trial_index":40,"time_elapsed":243144,"internal_node_id":"0.0-40.0"},{"src":["ours/197637_ours.png","ce/197637_ce.png","gl/197637_gl.png"],"rank_data":[1,0,2],"rank_result":["ce/197637_ce.png","ours/197637_ours.png","gl/197637_gl.png"],"rt":3902,"trial_type":"image-rank","trial_index":41,"time_elapsed":247048,"internal_node_id":"0.0-41.0"},{"src":["ours/178580_ours.png","gl/178580_gl.png","ce/178580_ce.png"],"rank_data":[0,2,1],"rank_result":["ours/178580_ours.png","ce/178580_ce.png","gl/178580_gl.png"],"rt":4872,"trial_type":"image-rank","trial_index":42,"time_elapsed":251921,"internal_node_id":"0.0-42.0"},{"src":["ce/086601_ce.png","ours/086601_ours.png","gl/086601_gl.png"],"rank_data":[2,1,0],"rank_result":["gl/086601_gl.png","ours/086601_ours.png","ce/086601_ce.png"],"rt":8741,"trial_type":"image-rank","trial_index":43,"time_elapsed":260663,"internal_node_id":"0.0-43.0"},{"src":["ours/019591_ours.png","gl/019591_gl.png","ce/019591_ce.png"],"rank_data":[1,0,2],"rank_result":["gl/019591_gl.png","ours/019591_ours.png","ce/019591_ce.png"],"rt":4153,"trial_type":"image-rank","trial_index":44,"time_elapsed":264816,"internal_node_id":"0.0-44.0"},{"src":["gl/048065_gl.png","ours/048065_ours.png","ce/048065_ce.png"],"rank_data":[2,0,1],"rank_result":["ours/048065_ours.png","ce/048065_ce.png","gl/048065_gl.png"],"rt":5414,"trial_type":"image-rank","trial_index":45,"time_elapsed":270232,"internal_node_id":"0.0-45.0"},{"src":["ce/066637_ce.png","ours/066637_ours.png","gl/066637_gl.png"],"rank_data":[2,0,1],"rank_result":["ours/066637_ours.png","gl/066637_gl.png","ce/066637_ce.png"],"rt":4518,"trial_type":"image-rank","trial_index":46,"time_elapsed":274750,"internal_node_id":"0.0-46.0"},{"src":["ce/180060_ce.png","gl/180060_gl.png","ours/180060_ours.png"],"rank_data":[2,1,0],"rank_result":["ours/180060_ours.png","gl/180060_gl.png","ce/180060_ce.png"],"rt":3716,"trial_type":"image-rank","trial_index":47,"time_elapsed":278466,"internal_node_id":"0.0-47.0"},{"src":["ce/044363_ce.png","ours/044363_ours.png","gl/044363_gl.png"],"rank_data":[1,2,0],"rank_result":["gl/044363_gl.png","ce/044363_ce.png","ours/044363_ours.png"],"rt":4273,"trial_type":"image-rank","trial_index":48,"time_elapsed":282740,"internal_node_id":"0.0-48.0"},{"src":["gl/179005_gl.png","ce/179005_ce.png","ours/179005_ours.png"],"rank_data":[2,1,0],"rank_result":["ours/179005_ours.png","ce/179005_ce.png","gl/179005_gl.png"],"rt":5163,"trial_type":"image-rank","trial_index":49,"time_elapsed":287903,"internal_node_id":"0.0-49.0"},{"src":["gl/022904_gl.png","ours/022904_ours.png","ce/022904_ce.png"],"rank_data":[2,1,0],"rank_result":["ce/022904_ce.png","ours/022904_ours.png","gl/022904_gl.png"],"rt":6665,"trial_type":"image-rank","trial_index":50,"time_elapsed":294569,"internal_node_id":"0.0-50.0"},{"src":["gl/042087_gl.png","ours/042087_ours.png","ce/042087_ce.png"],"rank_data":[1,0,2],"rank_result":["ours/042087_ours.png","gl/042087_gl.png","ce/042087_ce.png"],"rt":6807,"trial_type":"image-rank","trial_index":51,"time_elapsed":301377,"internal_node_id":"0.0-51.0"},{"src":["ours/178081_ours.png","ce/178081_ce.png","gl/178081_gl.png"],"rank_data":[2,0,1],"rank_result":["ce/178081_ce.png","gl/178081_gl.png","ours/178081_ours.png"],"rt":5396,"trial_type":"image-rank","trial_index":52,"time_elapsed":306775,"internal_node_id":"0.0-52.0"},{"src":["ours/103625_ours.png","gl/103625_gl.png","ce/103625_ce.png"],"rank_data":[0,2,1],"rank_result":["ours/103625_ours.png","ce/103625_ce.png","gl/103625_gl.png"],"rt":7279,"trial_type":"image-rank","trial_index":53,"time_elapsed":314054,"internal_node_id":"0.0-53.0"},{"src":["ce/124712_ce.png","ours/124712_ours.png","gl/124712_gl.png"],"rank_data":[0,2,1],"rank_result":["ce/124712_ce.png","gl/124712_gl.png","ours/124712_ours.png"],"rt":7026,"trial_type":"image-rank","trial_index":54,"time_elapsed":321080,"internal_node_id":"0.0-54.0"},{"src":["ce/078474_ce.png","ours/078474_ours.png","gl/078474_gl.png"],"rank_data":[2,0,1],"rank_result":["ours/078474_ours.png","gl/078474_gl.png","ce/078474_ce.png"],"rt":9426,"trial_type":"image-rank","trial_index":55,"time_elapsed":330507,"internal_node_id":"0.0-55.0"},{"src":["ours/111963_ours.png","ce/111963_ce.png","gl/111963_gl.png"],"rank_data":[0,2,1],"rank_result":["ours/111963_ours.png","gl/111963_gl.png","ce/111963_ce.png"],"rt":4771,"trial_type":"image-rank","trial_index":56,"time_elapsed":335278,"internal_node_id":"0.0-56.0"},{"src":["ce/081909_ce.png","ours/081909_ours.png","gl/081909_gl.png"],"rank_data":[0,1,2],"rank_result":["ce/081909_ce.png","ours/081909_ours.png","gl/081909_gl.png"],"rt":3878,"trial_type":"image-rank","trial_index":57,"time_elapsed":339157,"internal_node_id":"0.0-57.0"},{"src":["ce/147760_ce.png","gl/147760_gl.png","ours/147760_ours.png"],"rank_data":[2,1,0],"rank_result":["ours/147760_ours.png","gl/147760_gl.png","ce/147760_ce.png"],"rt":4918,"trial_type":"image-rank","trial_index":58,"time_elapsed":344076,"internal_node_id":"0.0-58.0"},{"src":["ce/116750_ce.png","gl/116750_gl.png","ours/116750_ours.png"],"rank_data":[2,1,0],"rank_result":["ours/116750_ours.png","gl/116750_gl.png","ce/116750_ce.png"],"rt":5448,"trial_type":"image-rank","trial_index":59,"time_elapsed":349524,"internal_node_id":"0.0-59.0"},{"src":["ce/013401_ce.png","gl/013401_gl.png","ours/013401_ours.png"],"rank_data":[0,2,1],"rank_result":["ce/013401_ce.png","ours/013401_ours.png","gl/013401_gl.png"],"rt":3785,"trial_type":"image-rank","trial_index":60,"time_elapsed":353310,"internal_node_id":"0.0-60.0"},{"src":["ce/163326_ce.png","gl/163326_gl.png","ours/163326_ours.png"],"rank_data":[0,1,2],"rank_result":["ce/163326_ce.png","gl/163326_gl.png","ours/163326_ours.png"],"rt":5487,"trial_type":"image-rank","trial_index":61,"time_elapsed":358797,"internal_node_id":"0.0-61.0"},{"src":["ours/034282_ours.png","gl/034282_gl.png","ce/034282_ce.png"],"rank_data":[1,2,0],"rank_result":["ce/034282_ce.png","ours/034282_ours.png","gl/034282_gl.png"],"rt":5601,"trial_type":"image-rank","trial_index":62,"time_elapsed":364400,"internal_node_id":"0.0-62.0"},{"src":["ours/156751_ours.png","gl/156751_gl.png","ce/156751_ce.png"],"rank_data":[2,1,0],"rank_result":["ce/156751_ce.png","gl/156751_gl.png","ours/156751_ours.png"],"rt":4718,"trial_type":"image-rank","trial_index":63,"time_elapsed":369118,"internal_node_id":"0.0-63.0"},{"src":["ours/087394_ours.png","gl/087394_gl.png","ce/087394_ce.png"],"rank_data":[0,1,2],"rank_result":["ours/087394_ours.png","gl/087394_gl.png","ce/087394_ce.png"],"rt":4181,"trial_type":"image-rank","trial_index":64,"time_elapsed":373299,"internal_node_id":"0.0-64.0"},{"src":["gl/042994_gl.png","ours/042994_ours.png","ce/042994_ce.png"],"rank_data":[2,0,1],"rank_result":["ours/042994_ours.png","ce/042994_ce.png","gl/042994_gl.png"],"rt":4980,"trial_type":"image-rank","trial_index":65,"time_elapsed":378280,"internal_node_id":"0.0-65.0"},{"src":["ours/119335_ours.png","gl/119335_gl.png","ce/119335_ce.png"],"rank_data":[1,2,0],"rank_result":["ce/119335_ce.png","ours/119335_ours.png","gl/119335_gl.png"],"rt":4518,"trial_type":"image-rank","trial_index":66,"time_elapsed":382798,"internal_node_id":"0.0-66.0"},{"src":["ours/179690_ours.png","gl/179690_gl.png","ce/179690_ce.png"],"rank_data":[1,2,0],"rank_result":["ce/179690_ce.png","ours/179690_ours.png","gl/179690_gl.png"],"rt":6121,"trial_type":"image-rank","trial_index":67,"time_elapsed":388920,"internal_node_id":"0.0-67.0"},{"src":["gl/153390_gl.png","ce/153390_ce.png","ours/153390_ours.png"],"rank_data":[2,1,0],"rank_result":["ours/153390_ours.png","ce/153390_ce.png","gl/153390_gl.png"],"rt":4028,"trial_type":"image-rank","trial_index":68,"time_elapsed":392948,"internal_node_id":"0.0-68.0"},{"src":["ce/067730_ce.png","gl/067730_gl.png","ours/067730_ours.png"],"rank_data":[0,2,1],"rank_result":["ce/067730_ce.png","ours/067730_ours.png","gl/067730_gl.png"],"rt":5167,"trial_type":"image-rank","trial_index":69,"time_elapsed":398119,"internal_node_id":"0.0-69.0"},{"src":["gl/082644_gl.png","ce/082644_ce.png","ours/082644_ours.png"],"rank_data":[2,1,0],"rank_result":["ours/082644_ours.png","ce/082644_ce.png","gl/082644_gl.png"],"rt":3734,"trial_type":"image-rank","trial_index":70,"time_elapsed":401853,"internal_node_id":"0.0-70.0"},{"src":["ce/073372_ce.png","ours/073372_ours.png","gl/073372_gl.png"],"rank_data":[2,1,0],"rank_result":["gl/073372_gl.png","ours/073372_ours.png","ce/073372_ce.png"],"rt":3466,"trial_type":"image-rank","trial_index":71,"time_elapsed":405319,"internal_node_id":"0.0-71.0"},{"src":["ours/000267_ours.png","gl/000267_gl.png","ce/000267_ce.png"],"rank_data":[1,2,0],"rank_result":["ce/000267_ce.png","ours/000267_ours.png","gl/000267_gl.png"],"rt":3331,"trial_type":"image-rank","trial_index":72,"time_elapsed":408650,"internal_node_id":"0.0-72.0"},{"src":["gl/016724_gl.png","ce/016724_ce.png","ours/016724_ours.png"],"rank_data":[0,2,1],"rank_result":["gl/016724_gl.png","ours/016724_ours.png","ce/016724_ce.png"],"rt":3901,"trial_type":"image-rank","trial_index":73,"time_elapsed":412551,"internal_node_id":"0.0-73.0"},{"src":["ours/102038_ours.png","ce/102038_ce.png","gl/102038_gl.png"],"rank_data":[2,0,1],"rank_result":["ce/102038_ce.png","gl/102038_gl.png","ours/102038_ours.png"],"rt":3388,"trial_type":"image-rank","trial_index":74,"time_elapsed":415941,"internal_node_id":"0.0-74.0"},{"src":["ce/017413_ce.png","ours/017413_ours.png","gl/017413_gl.png"],"rank_data":[1,0,2],"rank_result":["ours/017413_ours.png","ce/017413_ce.png","gl/017413_gl.png"],"rt":7420,"trial_type":"image-rank","trial_index":75,"time_elapsed":423361,"internal_node_id":"0.0-75.0"},{"src":["ours/060962_ours.png","gl/060962_gl.png","ce/060962_ce.png"],"rank_data":[0,2,1],"rank_result":["ours/060962_ours.png","ce/060962_ce.png","gl/060962_gl.png"],"rt":5549,"trial_type":"image-rank","trial_index":76,"time_elapsed":428911,"internal_node_id":"0.0-76.0"},{"src":["gl/114670_gl.png","ours/114670_ours.png","ce/114670_ce.png"],"rank_data":[2,0,1],"rank_result":["ours/114670_ours.png","ce/114670_ce.png","gl/114670_gl.png"],"rt":3391,"trial_type":"image-rank","trial_index":77,"time_elapsed":432302,"internal_node_id":"0.0-77.0"},{"src":["gl/043800_gl.png","ours/043800_ours.png","ce/043800_ce.png"],"rank_data":[2,0,1],"rank_result":["ours/043800_ours.png","ce/043800_ce.png","gl/043800_gl.png"],"rt":5318,"trial_type":"image-rank","trial_index":78,"time_elapsed":437621,"internal_node_id":"0.0-78.0"},{"src":["ce/126817_ce.png","ours/126817_ours.png","gl/126817_gl.png"],"rank_data":[2,1,0],"rank_result":["gl/126817_gl.png","ours/126817_ours.png","ce/126817_ce.png"],"rt":4924,"trial_type":"image-rank","trial_index":79,"time_elapsed":442545,"internal_node_id":"0.0-79.0"},{"src":["ours/088152_ours.png","ce/088152_ce.png","gl/088152_gl.png"],"rank_data":[1,2,0],"rank_result":["gl/088152_gl.png","ours/088152_ours.png","ce/088152_ce.png"],"rt":5982,"trial_type":"image-rank","trial_index":80,"time_elapsed":448528,"internal_node_id":"0.0-80.0"},{"src":["gl/147162_gl.png","ce/147162_ce.png","ours/147162_ours.png"],"rank_data":[2,1,0],"rank_result":["ours/147162_ours.png","ce/147162_ce.png","gl/147162_gl.png"],"rt":3333,"trial_type":"image-rank","trial_index":81,"time_elapsed":451863,"internal_node_id":"0.0-81.0"},{"src":["gl/184650_gl.png","ce/184650_ce.png","ours/184650_ours.png"],"rank_data":[2,1,0],"rank_result":["ours/184650_ours.png","ce/184650_ce.png","gl/184650_gl.png"],"rt":3066,"trial_type":"image-rank","trial_index":82,"time_elapsed":454930,"internal_node_id":"0.0-82.0"},{"src":["ce/007343_ce.png","ours/007343_ours.png","gl/007343_gl.png"],"rank_data":[1,0,2],"rank_result":["ours/007343_ours.png","ce/007343_ce.png","gl/007343_gl.png"],"rt":3844,"trial_type":"image-rank","trial_index":83,"time_elapsed":458775,"internal_node_id":"0.0-83.0"},{"src":["ours/156257_ours.png","ce/156257_ce.png","gl/156257_gl.png"],"rank_data":[0,1,2],"rank_result":["ours/156257_ours.png","ce/156257_ce.png","gl/156257_gl.png"],"rt":5089,"trial_type":"image-rank","trial_index":84,"time_elapsed":463865,"internal_node_id":"0.0-84.0"},{"src":["gl/066487_gl.png","ce/066487_ce.png","ours/066487_ours.png"],"rank_data":[2,1,0],"rank_result":["ours/066487_ours.png","ce/066487_ce.png","gl/066487_gl.png"],"rt":4333,"trial_type":"image-rank","trial_index":85,"time_elapsed":468198,"internal_node_id":"0.0-85.0"},{"src":["ours/004892_ours.png","gl/004892_gl.png","ce/004892_ce.png"],"rank_data":[2,1,0],"rank_result":["ce/004892_ce.png","gl/004892_gl.png","ours/004892_ours.png"],"rt":6132,"trial_type":"image-rank","trial_index":86,"time_elapsed":474331,"internal_node_id":"0.0-86.0"},{"src":["ce/151937_ce.png","gl/151937_gl.png","ours/151937_ours.png"],"rank_data":[1,0,2],"rank_result":["gl/151937_gl.png","ce/151937_ce.png","ours/151937_ours.png"],"rt":4029,"trial_type":"image-rank","trial_index":87,"time_elapsed":478361,"internal_node_id":"0.0-87.0"},{"src":["ours/063399_ours.png","ce/063399_ce.png","gl/063399_gl.png"],"rank_data":[0,2,1],"rank_result":["ours/063399_ours.png","gl/063399_gl.png","ce/063399_ce.png"],"rt":5832,"trial_type":"image-rank","trial_index":88,"time_elapsed":484194,"internal_node_id":"0.0-88.0"},{"src":["gl/098860_gl.png","ce/098860_ce.png","ours/098860_ours.png"],"rank_data":[2,0,1],"rank_result":["ce/098860_ce.png","ours/098860_ours.png","gl/098860_gl.png"],"rt":4682,"trial_type":"image-rank","trial_index":89,"time_elapsed":488877,"internal_node_id":"0.0-89.0"},{"src":["ce/009858_ce.png","ours/009858_ours.png","gl/009858_gl.png"],"rank_data":[2,0,1],"rank_result":["ours/009858_ours.png","gl/009858_gl.png","ce/009858_ce.png"],"rt":3618,"trial_type":"image-rank","trial_index":90,"time_elapsed":492495,"internal_node_id":"0.0-90.0"},{"src":["gl/168419_gl.png","ours/168419_ours.png","ce/168419_ce.png"],"rank_data":[1,0,2],"rank_result":["ours/168419_ours.png","gl/168419_gl.png","ce/168419_ce.png"],"rt":4675,"trial_type":"image-rank","trial_index":91,"time_elapsed":497171,"internal_node_id":"0.0-91.0"},{"src":["ours/068248_ours.png","ce/068248_ce.png","gl/068248_gl.png"],"rank_data":[1,2,0],"rank_result":["gl/068248_gl.png","ours/068248_ours.png","ce/068248_ce.png"],"rt":3532,"trial_type":"image-rank","trial_index":92,"time_elapsed":500704,"internal_node_id":"0.0-92.0"},{"src":["ce/087914_ce.png","gl/087914_gl.png","ours/087914_ours.png"],"rank_data":[2,1,0],"rank_result":["ours/087914_ours.png","gl/087914_gl.png","ce/087914_ce.png"],"rt":5559,"trial_type":"image-rank","trial_index":93,"time_elapsed":506263,"internal_node_id":"0.0-93.0"},{"src":["ours/049107_ours.png","gl/049107_gl.png","ce/049107_ce.png"],"rank_data":[0,2,1],"rank_result":["ours/049107_ours.png","ce/049107_ce.png","gl/049107_gl.png"],"rt":3692,"trial_type":"image-rank","trial_index":94,"time_elapsed":509956,"internal_node_id":"0.0-94.0"},{"src":["ce/035270_ce.png","gl/035270_gl.png","ours/035270_ours.png"],"rank_data":[1,2,0],"rank_result":["ours/035270_ours.png","ce/035270_ce.png","gl/035270_gl.png"],"rt":4415,"trial_type":"image-rank","trial_index":95,"time_elapsed":514371,"internal_node_id":"0.0-95.0"},{"src":["gl/151211_gl.png","ours/151211_ours.png","ce/151211_ce.png"],"rank_data":[2,0,1],"rank_result":["ours/151211_ours.png","ce/151211_ce.png","gl/151211_gl.png"],"rt":6581,"trial_type":"image-rank","trial_index":96,"time_elapsed":520952,"internal_node_id":"0.0-96.0"},{"src":["gl/064655_gl.png","ce/064655_ce.png","ours/064655_ours.png"],"rank_data":[2,1,0],"rank_result":["ours/064655_ours.png","ce/064655_ce.png","gl/064655_gl.png"],"rt":3838,"trial_type":"image-rank","trial_index":97,"time_elapsed":524791,"internal_node_id":"0.0-97.0"},{"src":["ours/001291_ours.png","ce/001291_ce.png","gl/001291_gl.png"],"rank_data":[0,1,2],"rank_result":["ours/001291_ours.png","ce/001291_ce.png","gl/001291_gl.png"],"rt":5291,"trial_type":"image-rank","trial_index":98,"time_elapsed":530083,"internal_node_id":"0.0-98.0"},{"src":["ce/096662_ce.png","ours/096662_ours.png","gl/096662_gl.png"],"rank_data":[1,0,2],"rank_result":["ours/096662_ours.png","ce/096662_ce.png","gl/096662_gl.png"],"rt":6671,"trial_type":"image-rank","trial_index":99,"time_elapsed":536754,"internal_node_id":"0.0-99.0"},{"src":["ours/121278_ours.png","gl/121278_gl.png","ce/121278_ce.png"],"rank_data":[2,0,1],"rank_result":["gl/121278_gl.png","ce/121278_ce.png","ours/121278_ours.png"],"rt":4337,"trial_type":"image-rank","trial_index":100,"time_elapsed":541092,"internal_node_id":"0.0-100.0"},{"src":["gl/182927_gl.png","ce/182927_ce.png","ours/182927_ours.png"],"rank_data":[2,1,0],"rank_result":["ours/182927_ours.png","ce/182927_ce.png","gl/182927_gl.png"],"rt":4094,"trial_type":"image-rank","trial_index":101,"time_elapsed":545187,"internal_node_id":"0.0-101.0"},{"src":["ours/006745_ours.png","ce/006745_ce.png","gl/006745_gl.png"],"rank_data":[0,1,2],"rank_result":["ours/006745_ours.png","ce/006745_ce.png","gl/006745_gl.png"],"rt":6039,"trial_type":"image-rank","trial_index":102,"time_elapsed":551227,"internal_node_id":"0.0-102.0"},{"rt":5224,"responses":"{\"Q0\":\"Rui Zhi\"}","trial_type":"survey-text","trial_index":103,"time_elapsed":556453,"internal_node_id":"0.0-103.0"},{"rt":5133,"responses":"{\"Q0\":\"26\"}","trial_type":"survey-text","trial_index":104,"time_elapsed":561587,"internal_node_id":"0.0-104.0"},{"rt":2576,"stimulus":"<div style=\"font-size:15px;\">You have reached the end of the experiment! Press any key to finish.</div>","key_press":32,"trial_type":"html-keyboard-response","trial_index":105,"time_elapsed":564163,"internal_node_id":"0.0-105.0"}]