[{"rt":3853,"stimulus":"Welcome to the experiment. Press any key to begin.","key_press":13,"trial_type":"html-keyboard-response","trial_index":0,"time_elapsed":3857,"internal_node_id":"0.0-0.0"},{"rt":2666,"stimulus":"<p>In this experiment, three images of people will appear in the center of the screen.</p><p>Your task is to rank these images based on how <strong>real</strong> you think they are.<p>The ranking level is between 1 to 3, with <strong>1</strong> representing the most real one and <strong>3</strong> the fakest one.</p><p>The time to rank is not limited. When you finish ranking, click the <strong>Continue</strong> button to continue.</p>","key_press":13,"trial_type":"html-keyboard-response","trial_index":1,"time_elapsed":6524,"internal_node_id":"0.0-1.0"},{"rt":null,"stimulus":"<div style=\"font-size:60px;\"></div>","key_press":null,"label":"fixation","trial_type":"html-keyboard-response","trial_index":2,"time_elapsed":7543,"internal_node_id":"0.0-2.0"},{"src":["ours/069132_ours.png","ce/069132_ce.png","gl/069132_gl.png"],"rank_data":[0,2,1],"rank_result":["ours/069132_ours.png","gl/069132_gl.png","ce/069132_ce.png"],"rt":7631,"trial_type":"image-rank","trial_index":3,"time_elapsed":15178,"internal_node_id":"0.0-3.0"},{"src":["ce/084161_ce.png","ours/084161_ours.png","gl/084161_gl.png"],"rank_data":[1,0,2],"rank_result":["ours/084161_ours.png","ce/084161_ce.png","gl/084161_gl.png"],"rt":3785,"trial_type":"image-rank","trial_index":4,"time_elapsed":18964,"internal_node_id":"0.0-4.0"},{"src":["ours/005727_ours.png","gl/005727_gl.png","ce/005727_ce.png"],"rank_data":[0,2,1],"rank_result":["ours/005727_ours.png","ce/005727_ce.png","gl/005727_gl.png"],"rt":3859,"trial_type":"image-rank","trial_index":5,"time_elapsed":22823,"internal_node_id":"0.0-5.0"},{"src":["ce/061430_ce.png","ours/061430_ours.png","gl/061430_gl.png"],"rank_data":[1,0,2],"rank_result":["ours/061430_ours.png","ce/061430_ce.png","gl/061430_gl.png"],"rt":4009,"trial_type":"image-rank","trial_index":6,"time_elapsed":26833,"internal_node_id":"0.0-6.0"},{"src":["ce/156257_ce.png","ours/156257_ours.png","gl/156257_gl.png"],"rank_data":[1,0,2],"rank_result":["ours/156257_ours.png","ce/156257_ce.png","gl/156257_gl.png"],"rt":5476,"trial_type":"image-rank","trial_index":7,"time_elapsed":32309,"internal_node_id":"0.0-7.0"},{"src":["gl/091644_gl.png","ours/091644_ours.png","ce/091644_ce.png"],"rank_data":[2,0,1],"rank_result":["ours/091644_ours.png","ce/091644_ce.png","gl/091644_gl.png"],"rt":3897,"trial_type":"image-rank","trial_index":8,"time_elapsed":36206,"internal_node_id":"0.0-8.0"},{"src":["ce/075043_ce.png","ours/075043_ours.png","gl/075043_gl.png"],"rank_data":[2,0,1],"rank_result":["ours/075043_ours.png","gl/075043_gl.png","ce/075043_ce.png"],"rt":3986,"trial_type":"image-rank","trial_index":9,"time_elapsed":40193,"internal_node_id":"0.0-9.0"},{"src":["gl/065879_gl.png","ce/065879_ce.png","ours/065879_ours.png"],"rank_data":[2,1,0],"rank_result":["ours/065879_ours.png","ce/065879_ce.png","gl/065879_gl.png"],"rt":8167,"trial_type":"image-rank","trial_index":10,"time_elapsed":48360,"internal_node_id":"0.0-10.0"},{"src":["gl/054401_gl.png","ce/054401_ce.png","ours/054401_ours.png"],"rank_data":[2,1,0],"rank_result":["ours/054401_ours.png","ce/054401_ce.png","gl/054401_gl.png"],"rt":7749,"trial_type":"image-rank","trial_index":11,"time_elapsed":56109,"internal_node_id":"0.0-11.0"},{"src":["ce/182778_ce.png","ours/182778_ours.png","gl/182778_gl.png"],"rank_data":[2,1,0],"rank_result":["gl/182778_gl.png","ours/182778_ours.png","ce/182778_ce.png"],"rt":6984,"trial_type":"image-rank","trial_index":12,"time_elapsed":63094,"internal_node_id":"0.0-12.0"},{"src":["ours/014616_ours.png","gl/014616_gl.png","ce/014616_ce.png"],"rank_data":[0,2,1],"rank_result":["ours/014616_ours.png","ce/014616_ce.png","gl/014616_gl.png"],"rt":8501,"trial_type":"image-rank","trial_index":13,"time_elapsed":71595,"internal_node_id":"0.0-13.0"},{"src":["ours/133021_ours.png","ce/133021_ce.png","gl/133021_gl.png"],"rank_data":[0,1,2],"rank_result":["ours/133021_ours.png","ce/133021_ce.png","gl/133021_gl.png"],"rt":14943,"trial_type":"image-rank","trial_index":14,"time_elapsed":86538,"internal_node_id":"0.0-14.0"},{"src":["gl/166551_gl.png","ce/166551_ce.png","ours/166551_ours.png"],"rank_data":[2,1,0],"rank_result":["ours/166551_ours.png","ce/166551_ce.png","gl/166551_gl.png"],"rt":3999,"trial_type":"image-rank","trial_index":15,"time_elapsed":90538,"internal_node_id":"0.0-15.0"},{"src":["ce/132278_ce.png","gl/132278_gl.png","ours/132278_ours.png"],"rank_data":[1,2,0],"rank_result":["ours/132278_ours.png","ce/132278_ce.png","gl/132278_gl.png"],"rt":4846,"trial_type":"image-rank","trial_index":16,"time_elapsed":95386,"internal_node_id":"0.0-16.0"},{"src":["ours/133038_ours.png","ce/133038_ce.png","gl/133038_gl.png"],"rank_data":[0,1,2],"rank_result":["ours/133038_ours.png","ce/133038_ce.png","gl/133038_gl.png"],"rt":4693,"trial_type":"image-rank","trial_index":17,"time_elapsed":100079,"internal_node_id":"0.0-17.0"},{"src":["gl/071496_gl.png","ce/071496_ce.png","ours/071496_ours.png"],"rank_data":[2,1,0],"rank_result":["ours/071496_ours.png","ce/071496_ce.png","gl/071496_gl.png"],"rt":3721,"trial_type":"image-rank","trial_index":18,"time_elapsed":103801,"internal_node_id":"0.0-18.0"},{"src":["ours/125080_ours.png","ce/125080_ce.png","gl/125080_gl.png"],"rank_data":[0,2,1],"rank_result":["ours/125080_ours.png","gl/125080_gl.png","ce/125080_ce.png"],"rt":5535,"trial_type":"image-rank","trial_index":19,"time_elapsed":109336,"internal_node_id":"0.0-19.0"},{"src":["gl/006866_gl.png","ours/006866_ours.png","ce/006866_ce.png"],"rank_data":[0,2,1],"rank_result":["gl/006866_gl.png","ce/006866_ce.png","ours/006866_ours.png"],"rt":6280,"trial_type":"image-rank","trial_index":20,"time_elapsed":115617,"internal_node_id":"0.0-20.0"},{"src":["ours/097906_ours.png","gl/097906_gl.png","ce/097906_ce.png"],"rank_data":[0,2,1],"rank_result":["ours/097906_ours.png","ce/097906_ce.png","gl/097906_gl.png"],"rt":3991,"trial_type":"image-rank","trial_index":21,"time_elapsed":119609,"internal_node_id":"0.0-21.0"},{"src":["ours/196236_ours.png","ce/196236_ce.png","gl/196236_gl.png"],"rank_data":[1,2,0],"rank_result":["gl/196236_gl.png","ours/196236_ours.png","ce/196236_ce.png"],"rt":11201,"trial_type":"image-rank","trial_index":22,"time_elapsed":130810,"internal_node_id":"0.0-22.0"},{"src":["ours/004075_ours.png","gl/004075_gl.png","ce/004075_ce.png"],"rank_data":[0,2,1],"rank_result":["ours/004075_ours.png","ce/004075_ce.png","gl/004075_gl.png"],"rt":3635,"trial_type":"image-rank","trial_index":23,"time_elapsed":134446,"internal_node_id":"0.0-23.0"},{"src":["gl/197023_gl.png","ce/197023_ce.png","ours/197023_ours.png"],"rank_data":[2,1,0],"rank_result":["ours/197023_ours.png","ce/197023_ce.png","gl/197023_gl.png"],"rt":4254,"trial_type":"image-rank","trial_index":24,"time_elapsed":138700,"internal_node_id":"0.0-24.0"},{"src":["ce/143683_ce.png","gl/143683_gl.png","ours/143683_ours.png"],"rank_data":[2,1,0],"rank_result":["ours/143683_ours.png","gl/143683_gl.png","ce/143683_ce.png"],"rt":3460,"trial_type":"image-rank","trial_index":25,"time_elapsed":142160,"internal_node_id":"0.0-25.0"},{"src":["ce/032313_ce.png","ours/032313_ours.png","gl/032313_gl.png"],"rank_data":[1,0,2],"rank_result":["ours/032313_ours.png","ce/032313_ce.png","gl/032313_gl.png"],"rt":5652,"trial_type":"image-rank","trial_index":26,"time_elapsed":147813,"internal_node_id":"0.0-26.0"},{"src":["ce/175534_ce.png","gl/175534_gl.png","ours/175534_ours.png"],"rank_data":[1,2,0],"rank_result":["ours/175534_ours.png","ce/175534_ce.png","gl/175534_gl.png"],"rt":5021,"trial_type":"image-rank","trial_index":27,"time_elapsed":152834,"internal_node_id":"0.0-27.0"},{"src":["gl/107875_gl.png","ce/107875_ce.png","ours/107875_ours.png"],"rank_data":[2,1,0],"rank_result":["ours/107875_ours.png","ce/107875_ce.png","gl/107875_gl.png"],"rt":3369,"trial_type":"image-rank","trial_index":28,"time_elapsed":156203,"internal_node_id":"0.0-28.0"},{"src":["ce/054259_ce.png","ours/054259_ours.png","gl/054259_gl.png"],"rank_data":[1,0,2],"rank_result":["ours/054259_ours.png","ce/054259_ce.png","gl/054259_gl.png"],"rt":5207,"trial_type":"image-rank","trial_index":29,"time_elapsed":161410,"internal_node_id":"0.0-29.0"},{"src":["gl/167676_gl.png","ce/167676_ce.png","ours/167676_ours.png"],"rank_data":[1,2,0],"rank_result":["ours/167676_ours.png","gl/167676_gl.png","ce/167676_ce.png"],"rt":5351,"trial_type":"image-rank","trial_index":30,"time_elapsed":166761,"internal_node_id":"0.0-30.0"},{"src":["ours/030024_ours.png","ce/030024_ce.png","gl/030024_gl.png"],"rank_data":[0,2,1],"rank_result":["ours/030024_ours.png","gl/030024_gl.png","ce/030024_ce.png"],"rt":3748,"trial_type":"image-rank","trial_index":31,"time_elapsed":170510,"internal_node_id":"0.0-31.0"},{"src":["gl/010132_gl.png","ce/010132_ce.png","ours/010132_ours.png"],"rank_data":[1,2,0],"rank_result":["ours/010132_ours.png","gl/010132_gl.png","ce/010132_ce.png"],"rt":4820,"trial_type":"image-rank","trial_index":32,"time_elapsed":175330,"internal_node_id":"0.0-32.0"},{"src":["gl/120481_gl.png","ce/120481_ce.png","ours/120481_ours.png"],"rank_data":[1,2,0],"rank_result":["ours/120481_ours.png","gl/120481_gl.png","ce/120481_ce.png"],"rt":4193,"trial_type":"image-rank","trial_index":33,"time_elapsed":179523,"internal_node_id":"0.0-33.0"},{"src":["ours/021173_ours.png","gl/021173_gl.png","ce/021173_ce.png"],"rank_data":[1,2,0],"rank_result":["ce/021173_ce.png","ours/021173_ours.png","gl/021173_gl.png"],"rt":4044,"trial_type":"image-rank","trial_index":34,"time_elapsed":183568,"internal_node_id":"0.0-34.0"},{"src":["ours/006429_ours.png","ce/006429_ce.png","gl/006429_gl.png"],"rank_data":[1,2,0],"rank_result":["gl/006429_gl.png","ours/006429_ours.png","ce/006429_ce.png"],"rt":6290,"trial_type":"image-rank","trial_index":35,"time_elapsed":189859,"internal_node_id":"0.0-35.0"},{"src":["gl/029213_gl.png","ours/029213_ours.png","ce/029213_ce.png"],"rank_data":[2,0,1],"rank_result":["ours/029213_ours.png","ce/029213_ce.png","gl/029213_gl.png"],"rt":16832,"trial_type":"image-rank","trial_index":36,"time_elapsed":206691,"internal_node_id":"0.0-36.0"},{"src":["ours/180329_ours.png","ce/180329_ce.png","gl/180329_gl.png"],"rank_data":[1,0,2],"rank_result":["ce/180329_ce.png","ours/180329_ours.png","gl/180329_gl.png"],"rt":5168,"trial_type":"image-rank","trial_index":37,"time_elapsed":211859,"internal_node_id":"0.0-37.0"},{"src":["ce/054622_ce.png","gl/054622_gl.png","ours/054622_ours.png"],"rank_data":[2,1,0],"rank_result":["ours/054622_ours.png","gl/054622_gl.png","ce/054622_ce.png"],"rt":4211,"trial_type":"image-rank","trial_index":38,"time_elapsed":216071,"internal_node_id":"0.0-38.0"},{"src":["ce/045692_ce.png","ours/045692_ours.png","gl/045692_gl.png"],"rank_data":[2,0,1],"rank_result":["ours/045692_ours.png","gl/045692_gl.png","ce/045692_ce.png"],"rt":4855,"trial_type":"image-rank","trial_index":39,"time_elapsed":220927,"internal_node_id":"0.0-39.0"},{"src":["ce/036233_ce.png","gl/036233_gl.png","ours/036233_ours.png"],"rank_data":[0,1,2],"rank_result":["ce/036233_ce.png","gl/036233_gl.png","ours/036233_ours.png"],"rt":19155,"trial_type":"image-rank","trial_index":40,"time_elapsed":240083,"internal_node_id":"0.0-40.0"},{"src":["ce/083931_ce.png","ours/083931_ours.png","gl/083931_gl.png"],"rank_data":[1,0,2],"rank_result":["ours/083931_ours.png","ce/083931_ce.png","gl/083931_gl.png"],"rt":6524,"trial_type":"image-rank","trial_index":41,"time_elapsed":246608,"internal_node_id":"0.0-41.0"},{"src":["gl/132716_gl.png","ce/132716_ce.png","ours/132716_ours.png"],"rank_data":[2,1,0],"rank_result":["ours/132716_ours.png","ce/132716_ce.png","gl/132716_gl.png"],"rt":5234,"trial_type":"image-rank","trial_index":42,"time_elapsed":251842,"internal_node_id":"0.0-42.0"},{"src":["ce/029846_ce.png","gl/029846_gl.png","ours/029846_ours.png"],"rank_data":[1,2,0],"rank_result":["ours/029846_ours.png","ce/029846_ce.png","gl/029846_gl.png"],"rt":3075,"trial_type":"image-rank","trial_index":43,"time_elapsed":254918,"internal_node_id":"0.0-43.0"},{"src":["ce/190450_ce.png","ours/190450_ours.png","gl/190450_gl.png"],"rank_data":[1,0,2],"rank_result":["ours/190450_ours.png","ce/190450_ce.png","gl/190450_gl.png"],"rt":3229,"trial_type":"image-rank","trial_index":44,"time_elapsed":258147,"internal_node_id":"0.0-44.0"},{"src":["ce/007648_ce.png","ours/007648_ours.png","gl/007648_gl.png"],"rank_data":[2,0,1],"rank_result":["ours/007648_ours.png","gl/007648_gl.png","ce/007648_ce.png"],"rt":4141,"trial_type":"image-rank","trial_index":45,"time_elapsed":262289,"internal_node_id":"0.0-45.0"},{"src":["ce/097289_ce.png","ours/097289_ours.png","gl/097289_gl.png"],"rank_data":[1,0,2],"rank_result":["ours/097289_ours.png","ce/097289_ce.png","gl/097289_gl.png"],"rt":4994,"trial_type":"image-rank","trial_index":46,"time_elapsed":267283,"internal_node_id":"0.0-46.0"},{"src":["gl/176260_gl.png","ce/176260_ce.png","ours/176260_ours.png"],"rank_data":[1,2,0],"rank_result":["ours/176260_ours.png","gl/176260_gl.png","ce/176260_ce.png"],"rt":29366,"trial_type":"image-rank","trial_index":47,"time_elapsed":296650,"internal_node_id":"0.0-47.0"},{"src":["ce/120589_ce.png","ours/120589_ours.png","gl/120589_gl.png"],"rank_data":[1,0,2],"rank_result":["ours/120589_ours.png","ce/120589_ce.png","gl/120589_gl.png"],"rt":5317,"trial_type":"image-rank","trial_index":48,"time_elapsed":301967,"internal_node_id":"0.0-48.0"},{"src":["gl/187033_gl.png","ce/187033_ce.png","ours/187033_ours.png"],"rank_data":[1,2,0],"rank_result":["ours/187033_ours.png","gl/187033_gl.png","ce/187033_ce.png"],"rt":8303,"trial_type":"image-rank","trial_index":49,"time_elapsed":310273,"internal_node_id":"0.0-49.0"},{"src":["ce/099406_ce.png","gl/099406_gl.png","ours/099406_ours.png"],"rank_data":[1,2,0],"rank_result":["ours/099406_ours.png","ce/099406_ce.png","gl/099406_gl.png"],"rt":5017,"trial_type":"image-rank","trial_index":50,"time_elapsed":315291,"internal_node_id":"0.0-50.0"},{"src":["gl/080348_gl.png","ours/080348_ours.png","ce/080348_ce.png"],"rank_data":[0,1,2],"rank_result":["gl/080348_gl.png","ours/080348_ours.png","ce/080348_ce.png"],"rt":17955,"trial_type":"image-rank","trial_index":51,"time_elapsed":333246,"internal_node_id":"0.0-51.0"},{"src":["gl/009443_gl.png","ours/009443_ours.png","ce/009443_ce.png"],"rank_data":[1,0,2],"rank_result":["ours/009443_ours.png","gl/009443_gl.png","ce/009443_ce.png"],"rt":3802,"trial_type":"image-rank","trial_index":52,"time_elapsed":337048,"internal_node_id":"0.0-52.0"},{"src":["gl/029061_gl.png","ce/029061_ce.png","ours/029061_ours.png"],"rank_data":[2,1,0],"rank_result":["ours/029061_ours.png","ce/029061_ce.png","gl/029061_gl.png"],"rt":4141,"trial_type":"image-rank","trial_index":53,"time_elapsed":341189,"internal_node_id":"0.0-53.0"},{"src":["ours/008966_ours.png","gl/008966_gl.png","ce/008966_ce.png"],"rank_data":[0,2,1],"rank_result":["ours/008966_ours.png","ce/008966_ce.png","gl/008966_gl.png"],"rt":5742,"trial_type":"image-rank","trial_index":54,"time_elapsed":346931,"internal_node_id":"0.0-54.0"},{"src":["gl/091317_gl.png","ce/091317_ce.png","ours/091317_ours.png"],"rank_data":[2,1,0],"rank_result":["ours/091317_ours.png","ce/091317_ce.png","gl/091317_gl.png"],"rt":3963,"trial_type":"image-rank","trial_index":55,"time_elapsed":350894,"internal_node_id":"0.0-55.0"},{"src":["ce/184919_ce.png","ours/184919_ours.png","gl/184919_gl.png"],"rank_data":[1,0,2],"rank_result":["ours/184919_ours.png","ce/184919_ce.png","gl/184919_gl.png"],"rt":4588,"trial_type":"image-rank","trial_index":56,"time_elapsed":355483,"internal_node_id":"0.0-56.0"},{"src":["ce/081378_ce.png","gl/081378_gl.png","ours/081378_ours.png"],"rank_data":[2,1,0],"rank_result":["ours/081378_ours.png","gl/081378_gl.png","ce/081378_ce.png"],"rt":3019,"trial_type":"image-rank","trial_index":57,"time_elapsed":358503,"internal_node_id":"0.0-57.0"},{"src":["gl/088221_gl.png","ours/088221_ours.png","ce/088221_ce.png"],"rank_data":[2,0,1],"rank_result":["ours/088221_ours.png","ce/088221_ce.png","gl/088221_gl.png"],"rt":5712,"trial_type":"image-rank","trial_index":58,"time_elapsed":364215,"internal_node_id":"0.0-58.0"},{"src":["gl/020066_gl.png","ours/020066_ours.png","ce/020066_ce.png"],"rank_data":[2,0,1],"rank_result":["ours/020066_ours.png","ce/020066_ce.png","gl/020066_gl.png"],"rt":5818,"trial_type":"image-rank","trial_index":59,"time_elapsed":370033,"internal_node_id":"0.0-59.0"},{"src":["ours/002665_ours.png","ce/002665_ce.png","gl/002665_gl.png"],"rank_data":[0,2,1],"rank_result":["ours/002665_ours.png","gl/002665_gl.png","ce/002665_ce.png"],"rt":3661,"trial_type":"image-rank","trial_index":60,"time_elapsed":373695,"internal_node_id":"0.0-60.0"},{"src":["gl/093168_gl.png","ours/093168_ours.png","ce/093168_ce.png"],"rank_data":[2,0,1],"rank_result":["ours/093168_ours.png","ce/093168_ce.png","gl/093168_gl.png"],"rt":3593,"trial_type":"image-rank","trial_index":61,"time_elapsed":377288,"internal_node_id":"0.0-61.0"},{"src":["gl/028755_gl.png","ours/028755_ours.png","ce/028755_ce.png"],"rank_data":[2,0,1],"rank_result":["ours/028755_ours.png","ce/028755_ce.png","gl/028755_gl.png"],"rt":5314,"trial_type":"image-rank","trial_index":62,"time_elapsed":382603,"internal_node_id":"0.0-62.0"},{"src":["ours/042647_ours.png","gl/042647_gl.png","ce/042647_ce.png"],"rank_data":[1,2,0],"rank_result":["ce/042647_ce.png","ours/042647_ours.png","gl/042647_gl.png"],"rt":6521,"trial_type":"image-rank","trial_index":63,"time_elapsed":389125,"internal_node_id":"0.0-63.0"},{"src":["ours/159670_ours.png","ce/159670_ce.png","gl/159670_gl.png"],"rank_data":[0,1,2],"rank_result":["ours/159670_ours.png","ce/159670_ce.png","gl/159670_gl.png"],"rt":4916,"trial_type":"image-rank","trial_index":64,"time_elapsed":394041,"internal_node_id":"0.0-64.0"},{"src":["gl/110472_gl.png","ce/110472_ce.png","ours/110472_ours.png"],"rank_data":[1,0,2],"rank_result":["ce/110472_ce.png","gl/110472_gl.png","ours/110472_ours.png"],"rt":13702,"trial_type":"image-rank","trial_index":65,"time_elapsed":407743,"internal_node_id":"0.0-65.0"},{"src":["ours/087810_ours.png","ce/087810_ce.png","gl/087810_gl.png"],"rank_data":[0,1,2],"rank_result":["ours/087810_ours.png","ce/087810_ce.png","gl/087810_gl.png"],"rt":7684,"trial_type":"image-rank","trial_index":66,"time_elapsed":415427,"internal_node_id":"0.0-66.0"},{"src":["gl/077665_gl.png","ce/077665_ce.png","ours/077665_ours.png"],"rank_data":[1,2,0],"rank_result":["ours/077665_ours.png","gl/077665_gl.png","ce/077665_ce.png"],"rt":7313,"trial_type":"image-rank","trial_index":67,"time_elapsed":422741,"internal_node_id":"0.0-67.0"},{"src":["gl/168058_gl.png","ce/168058_ce.png","ours/168058_ours.png"],"rank_data":[1,2,0],"rank_result":["ours/168058_ours.png","gl/168058_gl.png","ce/168058_ce.png"],"rt":2612,"trial_type":"image-rank","trial_index":68,"time_elapsed":425353,"internal_node_id":"0.0-68.0"},{"src":["gl/106291_gl.png","ce/106291_ce.png","ours/106291_ours.png"],"rank_data":[2,1,0],"rank_result":["ours/106291_ours.png","ce/106291_ce.png","gl/106291_gl.png"],"rt":5246,"trial_type":"image-rank","trial_index":69,"time_elapsed":430601,"internal_node_id":"0.0-69.0"},{"src":["ce/033896_ce.png","ours/033896_ours.png","gl/033896_gl.png"],"rank_data":[1,0,2],"rank_result":["ours/033896_ours.png","ce/033896_ce.png","gl/033896_gl.png"],"rt":4630,"trial_type":"image-rank","trial_index":70,"time_elapsed":435231,"internal_node_id":"0.0-70.0"},{"src":["gl/133266_gl.png","ce/133266_ce.png","ours/133266_ours.png"],"rank_data":[1,2,0],"rank_result":["ours/133266_ours.png","gl/133266_gl.png","ce/133266_ce.png"],"rt":5590,"trial_type":"image-rank","trial_index":71,"time_elapsed":440822,"internal_node_id":"0.0-71.0"},{"src":["ce/130842_ce.png","gl/130842_gl.png","ours/130842_ours.png"],"rank_data":[2,1,0],"rank_result":["ours/130842_ours.png","gl/130842_gl.png","ce/130842_ce.png"],"rt":4966,"trial_type":"image-rank","trial_index":72,"time_elapsed":445789,"internal_node_id":"0.0-72.0"},{"src":["ours/111492_ours.png","ce/111492_ce.png","gl/111492_gl.png"],"rank_data":[0,2,1],"rank_result":["ours/111492_ours.png","gl/111492_gl.png","ce/111492_ce.png"],"rt":3842,"trial_type":"image-rank","trial_index":73,"time_elapsed":449632,"internal_node_id":"0.0-73.0"},{"src":["gl/116723_gl.png","ce/116723_ce.png","ours/116723_ours.png"],"rank_data":[1,2,0],"rank_result":["ours/116723_ours.png","gl/116723_gl.png","ce/116723_ce.png"],"rt":6332,"trial_type":"image-rank","trial_index":74,"time_elapsed":455964,"internal_node_id":"0.0-74.0"},{"src":["ours/106981_ours.png","gl/106981_gl.png","ce/106981_ce.png"],"rank_data":[1,2,0],"rank_result":["ce/106981_ce.png","ours/106981_ours.png","gl/106981_gl.png"],"rt":5386,"trial_type":"image-rank","trial_index":75,"time_elapsed":461351,"internal_node_id":"0.0-75.0"},{"src":["ce/070276_ce.png","ours/070276_ours.png","gl/070276_gl.png"],"rank_data":[1,0,2],"rank_result":["ours/070276_ours.png","ce/070276_ce.png","gl/070276_gl.png"],"rt":4745,"trial_type":"image-rank","trial_index":76,"time_elapsed":466098,"internal_node_id":"0.0-76.0"},{"src":["gl/147338_gl.png","ours/147338_ours.png","ce/147338_ce.png"],"rank_data":[1,0,2],"rank_result":["ours/147338_ours.png","gl/147338_gl.png","ce/147338_ce.png"],"rt":5138,"trial_type":"image-rank","trial_index":77,"time_elapsed":471236,"internal_node_id":"0.0-77.0"},{"src":["gl/051289_gl.png","ce/051289_ce.png","ours/051289_ours.png"],"rank_data":[1,2,0],"rank_result":["ours/051289_ours.png","gl/051289_gl.png","ce/051289_ce.png"],"rt":10851,"trial_type":"image-rank","trial_index":78,"time_elapsed":482087,"internal_node_id":"0.0-78.0"},{"src":["ce/136134_ce.png","ours/136134_ours.png","gl/136134_gl.png"],"rank_data":[1,0,2],"rank_result":["ours/136134_ours.png","ce/136134_ce.png","gl/136134_gl.png"],"rt":5430,"trial_type":"image-rank","trial_index":79,"time_elapsed":487518,"internal_node_id":"0.0-79.0"},{"src":["ours/094649_ours.png","gl/094649_gl.png","ce/094649_ce.png"],"rank_data":[0,2,1],"rank_result":["ours/094649_ours.png","ce/094649_ce.png","gl/094649_gl.png"],"rt":4856,"trial_type":"image-rank","trial_index":80,"time_elapsed":492374,"internal_node_id":"0.0-80.0"},{"src":["ce/164615_ce.png","ours/164615_ours.png","gl/164615_gl.png"],"rank_data":[1,0,2],"rank_result":["ours/164615_ours.png","ce/164615_ce.png","gl/164615_gl.png"],"rt":3910,"trial_type":"image-rank","trial_index":81,"time_elapsed":496284,"internal_node_id":"0.0-81.0"},{"src":["gl/019784_gl.png","ce/019784_ce.png","ours/019784_ours.png"],"rank_data":[2,1,0],"rank_result":["ours/019784_ours.png","ce/019784_ce.png","gl/019784_gl.png"],"rt":3203,"trial_type":"image-rank","trial_index":82,"time_elapsed":499488,"internal_node_id":"0.0-82.0"},{"src":["ours/031623_ours.png","ce/031623_ce.png","gl/031623_gl.png"],"rank_data":[0,1,2],"rank_result":["ours/031623_ours.png","ce/031623_ce.png","gl/031623_gl.png"],"rt":3734,"trial_type":"image-rank","trial_index":83,"time_elapsed":503223,"internal_node_id":"0.0-83.0"},{"src":["ours/055905_ours.png","ce/055905_ce.png","gl/055905_gl.png"],"rank_data":[0,1,2],"rank_result":["ours/055905_ours.png","ce/055905_ce.png","gl/055905_gl.png"],"rt":3606,"trial_type":"image-rank","trial_index":84,"time_elapsed":506829,"internal_node_id":"0.0-84.0"},{"src":["ours/083284_ours.png","gl/083284_gl.png","ce/083284_ce.png"],"rank_data":[0,1,2],"rank_result":["ours/083284_ours.png","gl/083284_gl.png","ce/083284_ce.png"],"rt":8465,"trial_type":"image-rank","trial_index":85,"time_elapsed":515294,"internal_node_id":"0.0-85.0"},{"src":["ours/182794_ours.png","ce/182794_ce.png","gl/182794_gl.png"],"rank_data":[0,2,1],"rank_result":["ours/182794_ours.png","gl/182794_gl.png","ce/182794_ce.png"],"rt":4769,"trial_type":"image-rank","trial_index":86,"time_elapsed":520065,"internal_node_id":"0.0-86.0"},{"src":["ce/135672_ce.png","ours/135672_ours.png","gl/135672_gl.png"],"rank_data":[2,1,0],"rank_result":["gl/135672_gl.png","ours/135672_ours.png","ce/135672_ce.png"],"rt":3151,"trial_type":"image-rank","trial_index":87,"time_elapsed":523217,"internal_node_id":"0.0-87.0"},{"src":["gl/118518_gl.png","ce/118518_ce.png","ours/118518_ours.png"],"rank_data":[2,1,0],"rank_result":["ours/118518_ours.png","ce/118518_ce.png","gl/118518_gl.png"],"rt":3334,"trial_type":"image-rank","trial_index":88,"time_elapsed":526552,"internal_node_id":"0.0-88.0"},{"src":["ours/038226_ours.png","gl/038226_gl.png","ce/038226_ce.png"],"rank_data":[0,2,1],"rank_result":["ours/038226_ours.png","ce/038226_ce.png","gl/038226_gl.png"],"rt":5493,"trial_type":"image-rank","trial_index":89,"time_elapsed":532045,"internal_node_id":"0.0-89.0"},{"src":["ours/200502_ours.png","ce/200502_ce.png","gl/200502_gl.png"],"rank_data":[1,0,2],"rank_result":["ce/200502_ce.png","ours/200502_ours.png","gl/200502_gl.png"],"rt":7344,"trial_type":"image-rank","trial_index":90,"time_elapsed":539389,"internal_node_id":"0.0-90.0"},{"src":["ours/150040_ours.png","gl/150040_gl.png","ce/150040_ce.png"],"rank_data":[0,2,1],"rank_result":["ours/150040_ours.png","ce/150040_ce.png","gl/150040_gl.png"],"rt":5912,"trial_type":"image-rank","trial_index":91,"time_elapsed":545301,"internal_node_id":"0.0-91.0"},{"src":["ce/016666_ce.png","ours/016666_ours.png","gl/016666_gl.png"],"rank_data":[2,0,1],"rank_result":["ours/016666_ours.png","gl/016666_gl.png","ce/016666_ce.png"],"rt":7650,"trial_type":"image-rank","trial_index":92,"time_elapsed":552952,"internal_node_id":"0.0-92.0"},{"src":["ce/057920_ce.png","gl/057920_gl.png","ours/057920_ours.png"],"rank_data":[1,2,0],"rank_result":["ours/057920_ours.png","ce/057920_ce.png","gl/057920_gl.png"],"rt":3114,"trial_type":"image-rank","trial_index":93,"time_elapsed":556066,"internal_node_id":"0.0-93.0"},{"src":["ours/014396_ours.png","ce/014396_ce.png","gl/014396_gl.png"],"rank_data":[0,2,1],"rank_result":["ours/014396_ours.png","gl/014396_gl.png","ce/014396_ce.png"],"rt":3655,"trial_type":"image-rank","trial_index":94,"time_elapsed":559722,"internal_node_id":"0.0-94.0"},{"src":["ce/070784_ce.png","gl/070784_gl.png","ours/070784_ours.png"],"rank_data":[1,2,0],"rank_result":["ours/070784_ours.png","ce/070784_ce.png","gl/070784_gl.png"],"rt":5935,"trial_type":"image-rank","trial_index":95,"time_elapsed":565659,"internal_node_id":"0.0-95.0"},{"src":["ours/049107_ours.png","gl/049107_gl.png","ce/049107_ce.png"],"rank_data":[0,2,1],"rank_result":["ours/049107_ours.png","ce/049107_ce.png","gl/049107_gl.png"],"rt":6666,"trial_type":"image-rank","trial_index":96,"time_elapsed":572325,"internal_node_id":"0.0-96.0"},{"src":["ce/158518_ce.png","gl/158518_gl.png","ours/158518_ours.png"],"rank_data":[1,2,0],"rank_result":["ours/158518_ours.png","ce/158518_ce.png","gl/158518_gl.png"],"rt":3403,"trial_type":"image-rank","trial_index":97,"time_elapsed":575729,"internal_node_id":"0.0-97.0"},{"src":["ours/061547_ours.png","gl/061547_gl.png","ce/061547_ce.png"],"rank_data":[0,2,1],"rank_result":["ours/061547_ours.png","ce/061547_ce.png","gl/061547_gl.png"],"rt":3180,"trial_type":"image-rank","trial_index":98,"time_elapsed":578910,"internal_node_id":"0.0-98.0"},{"src":["ours/162072_ours.png","gl/162072_gl.png","ce/162072_ce.png"],"rank_data":[0,2,1],"rank_result":["ours/162072_ours.png","ce/162072_ce.png","gl/162072_gl.png"],"rt":3685,"trial_type":"image-rank","trial_index":99,"time_elapsed":582596,"internal_node_id":"0.0-99.0"},{"src":["ours/007529_ours.png","gl/007529_gl.png","ce/007529_ce.png"],"rank_data":[0,2,1],"rank_result":["ours/007529_ours.png","ce/007529_ce.png","gl/007529_gl.png"],"rt":3396,"trial_type":"image-rank","trial_index":100,"time_elapsed":585993,"internal_node_id":"0.0-100.0"},{"src":["ce/162142_ce.png","ours/162142_ours.png","gl/162142_gl.png"],"rank_data":[0,1,2],"rank_result":["ce/162142_ce.png","ours/162142_ours.png","gl/162142_gl.png"],"rt":3911,"trial_type":"image-rank","trial_index":101,"time_elapsed":589905,"internal_node_id":"0.0-101.0"},{"src":["ce/039232_ce.png","gl/039232_gl.png","ours/039232_ours.png"],"rank_data":[1,2,0],"rank_result":["ours/039232_ours.png","ce/039232_ce.png","gl/039232_gl.png"],"rt":3452,"trial_type":"image-rank","trial_index":102,"time_elapsed":593358,"internal_node_id":"0.0-102.0"}]