[{"rt":2560,"stimulus":"Welcome to the experiment. Press any key to begin.","key_press":13,"trial_type":"html-keyboard-response","trial_index":0,"time_elapsed":2560,"internal_node_id":"0.0-0.0"},{"rt":1727,"stimulus":"<p>In this experiment, three images of people will appear in the center of the screen.</p><p>Your task is to rank these images based on how <strong>real</strong> you think they are.<p>The ranking level is between 1 to 3, with <strong>1</strong> representing the most real one and <strong>3</strong> the fakest one.</p><p>The time to rank is not limited. When you finish ranking, click the <strong>Continue</strong> button to continue.</p>","key_press":13,"trial_type":"html-keyboard-response","trial_index":1,"time_elapsed":4288,"internal_node_id":"0.0-1.0"},{"rt":null,"stimulus":"<div style=\"font-size:60px;\"></div>","key_press":null,"label":"fixation","trial_type":"html-keyboard-response","trial_index":2,"time_elapsed":5290,"internal_node_id":"0.0-2.0"},{"src":["gl/120451_gl.png","ours/120451_ours.png","ce/120451_ce.png"],"rank_data":[2,0,1],"rank_result":["ours/120451_ours.png","ce/120451_ce.png","gl/120451_gl.png"],"rt":6095,"trial_type":"image-rank","trial_index":3,"time_elapsed":11386,"internal_node_id":"0.0-3.0"},{"src":["ce/038899_ce.png","ours/038899_ours.png","gl/038899_gl.png"],"rank_data":[2,0,1],"rank_result":["ours/038899_ours.png","gl/038899_gl.png","ce/038899_ce.png"],"rt":5664,"trial_type":"image-rank","trial_index":4,"time_elapsed":17050,"internal_node_id":"0.0-4.0"},{"src":["ours/089885_ours.png","gl/089885_gl.png","ce/089885_ce.png"],"rank_data":[0,1,2],"rank_result":["ours/089885_ours.png","gl/089885_gl.png","ce/089885_ce.png"],"rt":6240,"trial_type":"image-rank","trial_index":5,"time_elapsed":23290,"internal_node_id":"0.0-5.0"},{"src":["gl/040808_gl.png","ours/040808_ours.png","ce/040808_ce.png"],"rank_data":[2,0,1],"rank_result":["ours/040808_ours.png","ce/040808_ce.png","gl/040808_gl.png"],"rt":5636,"trial_type":"image-rank","trial_index":6,"time_elapsed":28926,"internal_node_id":"0.0-6.0"},{"src":["ours/135424_ours.png","gl/135424_gl.png","ce/135424_ce.png"],"rank_data":[1,2,0],"rank_result":["ce/135424_ce.png","ours/135424_ours.png","gl/135424_gl.png"],"rt":7828,"trial_type":"image-rank","trial_index":7,"time_elapsed":36754,"internal_node_id":"0.0-7.0"},{"src":["gl/136835_gl.png","ours/136835_ours.png","ce/136835_ce.png"],"rank_data":[1,0,2],"rank_result":["ours/136835_ours.png","gl/136835_gl.png","ce/136835_ce.png"],"rt":3959,"trial_type":"image-rank","trial_index":8,"time_elapsed":40714,"internal_node_id":"0.0-8.0"},{"src":["gl/122851_gl.png","ours/122851_ours.png","ce/122851_ce.png"],"rank_data":[2,0,1],"rank_result":["ours/122851_ours.png","ce/122851_ce.png","gl/122851_gl.png"],"rt":8323,"trial_type":"image-rank","trial_index":9,"time_elapsed":49037,"internal_node_id":"0.0-9.0"},{"src":["ours/032617_ours.png","ce/032617_ce.png","gl/032617_gl.png"],"rank_data":[1,0,2],"rank_result":["ce/032617_ce.png","ours/032617_ours.png","gl/032617_gl.png"],"rt":8891,"trial_type":"image-rank","trial_index":10,"time_elapsed":57931,"internal_node_id":"0.0-10.0"},{"src":["ce/128394_ce.png","gl/128394_gl.png","ours/128394_ours.png"],"rank_data":[1,2,0],"rank_result":["ours/128394_ours.png","ce/128394_ce.png","gl/128394_gl.png"],"rt":5234,"trial_type":"image-rank","trial_index":11,"time_elapsed":63166,"internal_node_id":"0.0-11.0"},{"src":["ours/197201_ours.png","ce/197201_ce.png","gl/197201_gl.png"],"rank_data":[0,2,1],"rank_result":["ours/197201_ours.png","gl/197201_gl.png","ce/197201_ce.png"],"rt":5315,"trial_type":"image-rank","trial_index":12,"time_elapsed":68481,"internal_node_id":"0.0-12.0"},{"src":["ours/059555_ours.png","ce/059555_ce.png","gl/059555_gl.png"],"rank_data":[1,2,0],"rank_result":["gl/059555_gl.png","ours/059555_ours.png","ce/059555_ce.png"],"rt":5138,"trial_type":"image-rank","trial_index":13,"time_elapsed":73619,"internal_node_id":"0.0-13.0"},{"src":["ours/138274_ours.png","ce/138274_ce.png","gl/138274_gl.png"],"rank_data":[1,0,2],"rank_result":["ce/138274_ce.png","ours/138274_ours.png","gl/138274_gl.png"],"rt":5514,"trial_type":"image-rank","trial_index":14,"time_elapsed":79133,"internal_node_id":"0.0-14.0"},{"src":["ce/137631_ce.png","gl/137631_gl.png","ours/137631_ours.png"],"rank_data":[1,2,0],"rank_result":["ours/137631_ours.png","ce/137631_ce.png","gl/137631_gl.png"],"rt":5274,"trial_type":"image-rank","trial_index":15,"time_elapsed":84407,"internal_node_id":"0.0-15.0"},{"src":["ours/047749_ours.png","gl/047749_gl.png","ce/047749_ce.png"],"rank_data":[0,2,1],"rank_result":["ours/047749_ours.png","ce/047749_ce.png","gl/047749_gl.png"],"rt":6005,"trial_type":"image-rank","trial_index":16,"time_elapsed":90412,"internal_node_id":"0.0-16.0"},{"src":["ours/105438_ours.png","gl/105438_gl.png","ce/105438_ce.png"],"rank_data":[0,2,1],"rank_result":["ours/105438_ours.png","ce/105438_ce.png","gl/105438_gl.png"],"rt":5328,"trial_type":"image-rank","trial_index":17,"time_elapsed":95740,"internal_node_id":"0.0-17.0"},{"src":["ce/079971_ce.png","ours/079971_ours.png","gl/079971_gl.png"],"rank_data":[2,1,0],"rank_result":["gl/079971_gl.png","ours/079971_ours.png","ce/079971_ce.png"],"rt":5491,"trial_type":"image-rank","trial_index":18,"time_elapsed":101233,"internal_node_id":"0.0-18.0"},{"src":["ours/068641_ours.png","ce/068641_ce.png","gl/068641_gl.png"],"rank_data":[0,2,1],"rank_result":["ours/068641_ours.png","gl/068641_gl.png","ce/068641_ce.png"],"rt":7711,"trial_type":"image-rank","trial_index":19,"time_elapsed":108945,"internal_node_id":"0.0-19.0"},{"src":["gl/109747_gl.png","ours/109747_ours.png","ce/109747_ce.png"],"rank_data":[2,0,1],"rank_result":["ours/109747_ours.png","ce/109747_ce.png","gl/109747_gl.png"],"rt":6544,"trial_type":"image-rank","trial_index":20,"time_elapsed":115489,"internal_node_id":"0.0-20.0"},{"src":["gl/177427_gl.png","ce/177427_ce.png","ours/177427_ours.png"],"rank_data":[0,2,1],"rank_result":["gl/177427_gl.png","ours/177427_ours.png","ce/177427_ce.png"],"rt":5183,"trial_type":"image-rank","trial_index":21,"time_elapsed":120672,"internal_node_id":"0.0-21.0"},{"src":["gl/096480_gl.png","ours/096480_ours.png","ce/096480_ce.png"],"rank_data":[1,0,2],"rank_result":["ours/096480_ours.png","gl/096480_gl.png","ce/096480_ce.png"],"rt":9182,"trial_type":"image-rank","trial_index":22,"time_elapsed":129855,"internal_node_id":"0.0-22.0"},{"src":["gl/082856_gl.png","ours/082856_ours.png","ce/082856_ce.png"],"rank_data":[2,0,1],"rank_result":["ours/082856_ours.png","ce/082856_ce.png","gl/082856_gl.png"],"rt":5006,"trial_type":"image-rank","trial_index":23,"time_elapsed":134863,"internal_node_id":"0.0-23.0"},{"src":["ce/097272_ce.png","ours/097272_ours.png","gl/097272_gl.png"],"rank_data":[2,1,0],"rank_result":["gl/097272_gl.png","ours/097272_ours.png","ce/097272_ce.png"],"rt":4792,"trial_type":"image-rank","trial_index":24,"time_elapsed":139656,"internal_node_id":"0.0-24.0"},{"src":["ce/051437_ce.png","gl/051437_gl.png","ours/051437_ours.png"],"rank_data":[1,2,0],"rank_result":["ours/051437_ours.png","ce/051437_ce.png","gl/051437_gl.png"],"rt":4464,"trial_type":"image-rank","trial_index":25,"time_elapsed":144120,"internal_node_id":"0.0-25.0"},{"src":["gl/083782_gl.png","ce/083782_ce.png","ours/083782_ours.png"],"rank_data":[2,1,0],"rank_result":["ours/083782_ours.png","ce/083782_ce.png","gl/083782_gl.png"],"rt":4586,"trial_type":"image-rank","trial_index":26,"time_elapsed":148707,"internal_node_id":"0.0-26.0"},{"src":["gl/163636_gl.png","ours/163636_ours.png","ce/163636_ce.png"],"rank_data":[2,0,1],"rank_result":["ours/163636_ours.png","ce/163636_ce.png","gl/163636_gl.png"],"rt":5788,"trial_type":"image-rank","trial_index":27,"time_elapsed":154496,"internal_node_id":"0.0-27.0"},{"src":["ce/112474_ce.png","ours/112474_ours.png","gl/112474_gl.png"],"rank_data":[2,0,1],"rank_result":["ours/112474_ours.png","gl/112474_gl.png","ce/112474_ce.png"],"rt":4702,"trial_type":"image-rank","trial_index":28,"time_elapsed":159199,"internal_node_id":"0.0-28.0"},{"src":["gl/188290_gl.png","ce/188290_ce.png","ours/188290_ours.png"],"rank_data":[1,2,0],"rank_result":["ours/188290_ours.png","gl/188290_gl.png","ce/188290_ce.png"],"rt":4733,"trial_type":"image-rank","trial_index":29,"time_elapsed":163933,"internal_node_id":"0.0-29.0"},{"src":["gl/176260_gl.png","ce/176260_ce.png","ours/176260_ours.png"],"rank_data":[1,2,0],"rank_result":["ours/176260_ours.png","gl/176260_gl.png","ce/176260_ce.png"],"rt":3427,"trial_type":"image-rank","trial_index":30,"time_elapsed":167360,"internal_node_id":"0.0-30.0"},{"src":["ours/044775_ours.png","ce/044775_ce.png","gl/044775_gl.png"],"rank_data":[0,1,2],"rank_result":["ours/044775_ours.png","ce/044775_ce.png","gl/044775_gl.png"],"rt":5962,"trial_type":"image-rank","trial_index":31,"time_elapsed":173322,"internal_node_id":"0.0-31.0"},{"src":["gl/050775_gl.png","ce/050775_ce.png","ours/050775_ours.png"],"rank_data":[0,2,1],"rank_result":["gl/050775_gl.png","ours/050775_ours.png","ce/050775_ce.png"],"rt":5610,"trial_type":"image-rank","trial_index":32,"time_elapsed":178933,"internal_node_id":"0.0-32.0"},{"src":["ours/085753_ours.png","gl/085753_gl.png","ce/085753_ce.png"],"rank_data":[1,2,0],"rank_result":["ce/085753_ce.png","ours/085753_ours.png","gl/085753_gl.png"],"rt":4635,"trial_type":"image-rank","trial_index":33,"time_elapsed":183568,"internal_node_id":"0.0-33.0"},{"src":["gl/088221_gl.png","ours/088221_ours.png","ce/088221_ce.png"],"rank_data":[1,0,2],"rank_result":["ours/088221_ours.png","gl/088221_gl.png","ce/088221_ce.png"],"rt":7108,"trial_type":"image-rank","trial_index":34,"time_elapsed":190678,"internal_node_id":"0.0-34.0"},{"src":["gl/054996_gl.png","ours/054996_ours.png","ce/054996_ce.png"],"rank_data":[1,0,2],"rank_result":["ours/054996_ours.png","gl/054996_gl.png","ce/054996_ce.png"],"rt":7733,"trial_type":"image-rank","trial_index":35,"time_elapsed":198412,"internal_node_id":"0.0-35.0"},{"src":["gl/166925_gl.png","ce/166925_ce.png","ours/166925_ours.png"],"rank_data":[2,1,0],"rank_result":["ours/166925_ours.png","ce/166925_ce.png","gl/166925_gl.png"],"rt":4009,"trial_type":"image-rank","trial_index":36,"time_elapsed":202422,"internal_node_id":"0.0-36.0"},{"src":["ce/010123_ce.png","ours/010123_ours.png","gl/010123_gl.png"],"rank_data":[1,0,2],"rank_result":["ours/010123_ours.png","ce/010123_ce.png","gl/010123_gl.png"],"rt":5824,"trial_type":"image-rank","trial_index":37,"time_elapsed":208247,"internal_node_id":"0.0-37.0"},{"src":["ours/017260_ours.png","gl/017260_gl.png","ce/017260_ce.png"],"rank_data":[0,1,2],"rank_result":["ours/017260_ours.png","gl/017260_gl.png","ce/017260_ce.png"],"rt":5576,"trial_type":"image-rank","trial_index":38,"time_elapsed":213824,"internal_node_id":"0.0-38.0"},{"src":["gl/168997_gl.png","ours/168997_ours.png","ce/168997_ce.png"],"rank_data":[2,0,1],"rank_result":["ours/168997_ours.png","ce/168997_ce.png","gl/168997_gl.png"],"rt":5525,"trial_type":"image-rank","trial_index":39,"time_elapsed":219349,"internal_node_id":"0.0-39.0"},{"src":["gl/088242_gl.png","ours/088242_ours.png","ce/088242_ce.png"],"rank_data":[2,0,1],"rank_result":["ours/088242_ours.png","ce/088242_ce.png","gl/088242_gl.png"],"rt":7527,"trial_type":"image-rank","trial_index":40,"time_elapsed":226878,"internal_node_id":"0.0-40.0"},{"src":["ce/134315_ce.png","gl/134315_gl.png","ours/134315_ours.png"],"rank_data":[2,0,1],"rank_result":["gl/134315_gl.png","ours/134315_ours.png","ce/134315_ce.png"],"rt":6867,"trial_type":"image-rank","trial_index":41,"time_elapsed":233745,"internal_node_id":"0.0-41.0"},{"src":["ce/047601_ce.png","ours/047601_ours.png","gl/047601_gl.png"],"rank_data":[2,0,1],"rank_result":["ours/047601_ours.png","gl/047601_gl.png","ce/047601_ce.png"],"rt":5325,"trial_type":"image-rank","trial_index":42,"time_elapsed":239070,"internal_node_id":"0.0-42.0"},{"src":["gl/059169_gl.png","ce/059169_ce.png","ours/059169_ours.png"],"rank_data":[2,1,0],"rank_result":["ours/059169_ours.png","ce/059169_ce.png","gl/059169_gl.png"],"rt":5731,"trial_type":"image-rank","trial_index":43,"time_elapsed":244801,"internal_node_id":"0.0-43.0"},{"src":["gl/186019_gl.png","ours/186019_ours.png","ce/186019_ce.png"],"rank_data":[2,0,1],"rank_result":["ours/186019_ours.png","ce/186019_ce.png","gl/186019_gl.png"],"rt":7720,"trial_type":"image-rank","trial_index":44,"time_elapsed":252522,"internal_node_id":"0.0-44.0"},{"src":["ours/097749_ours.png","gl/097749_gl.png","ce/097749_ce.png"],"rank_data":[0,1,2],"rank_result":["ours/097749_ours.png","gl/097749_gl.png","ce/097749_ce.png"],"rt":4886,"trial_type":"image-rank","trial_index":45,"time_elapsed":257409,"internal_node_id":"0.0-45.0"},{"src":["ce/086755_ce.png","ours/086755_ours.png","gl/086755_gl.png"],"rank_data":[1,0,2],"rank_result":["ours/086755_ours.png","ce/086755_ce.png","gl/086755_gl.png"],"rt":5563,"trial_type":"image-rank","trial_index":46,"time_elapsed":262972,"internal_node_id":"0.0-46.0"},{"src":["ce/003955_ce.png","gl/003955_gl.png","ours/003955_ours.png"],"rank_data":[2,1,0],"rank_result":["ours/003955_ours.png","gl/003955_gl.png","ce/003955_ce.png"],"rt":6527,"trial_type":"image-rank","trial_index":47,"time_elapsed":269500,"internal_node_id":"0.0-47.0"},{"src":["ce/089140_ce.png","gl/089140_gl.png","ours/089140_ours.png"],"rank_data":[1,2,0],"rank_result":["ours/089140_ours.png","ce/089140_ce.png","gl/089140_gl.png"],"rt":5470,"trial_type":"image-rank","trial_index":48,"time_elapsed":274972,"internal_node_id":"0.0-48.0"},{"src":["ours/089223_ours.png","gl/089223_gl.png","ce/089223_ce.png"],"rank_data":[1,2,0],"rank_result":["ce/089223_ce.png","ours/089223_ours.png","gl/089223_gl.png"],"rt":6200,"trial_type":"image-rank","trial_index":49,"time_elapsed":281172,"internal_node_id":"0.0-49.0"},{"src":["ce/092904_ce.png","gl/092904_gl.png","ours/092904_ours.png"],"rank_data":[2,1,0],"rank_result":["ours/092904_ours.png","gl/092904_gl.png","ce/092904_ce.png"],"rt":5860,"trial_type":"image-rank","trial_index":50,"time_elapsed":287032,"internal_node_id":"0.0-50.0"},{"src":["ce/011113_ce.png","gl/011113_gl.png","ours/011113_ours.png"],"rank_data":[1,2,0],"rank_result":["ours/011113_ours.png","ce/011113_ce.png","gl/011113_gl.png"],"rt":4639,"trial_type":"image-rank","trial_index":51,"time_elapsed":291672,"internal_node_id":"0.0-51.0"},{"src":["ce/192711_ce.png","ours/192711_ours.png","gl/192711_gl.png"],"rank_data":[2,0,1],"rank_result":["ours/192711_ours.png","gl/192711_gl.png","ce/192711_ce.png"],"rt":5683,"trial_type":"image-rank","trial_index":52,"time_elapsed":297356,"internal_node_id":"0.0-52.0"},{"src":["ours/118781_ours.png","gl/118781_gl.png","ce/118781_ce.png"],"rank_data":[0,2,1],"rank_result":["ours/118781_ours.png","ce/118781_ce.png","gl/118781_gl.png"],"rt":5371,"trial_type":"image-rank","trial_index":53,"time_elapsed":302728,"internal_node_id":"0.0-53.0"},{"src":["gl/010190_gl.png","ce/010190_ce.png","ours/010190_ours.png"],"rank_data":[2,1,0],"rank_result":["ours/010190_ours.png","ce/010190_ce.png","gl/010190_gl.png"],"rt":4795,"trial_type":"image-rank","trial_index":54,"time_elapsed":307524,"internal_node_id":"0.0-54.0"},{"src":["ours/013027_ours.png","ce/013027_ce.png","gl/013027_gl.png"],"rank_data":[0,1,2],"rank_result":["ours/013027_ours.png","ce/013027_ce.png","gl/013027_gl.png"],"rt":9296,"trial_type":"image-rank","trial_index":55,"time_elapsed":316820,"internal_node_id":"0.0-55.0"},{"src":["ce/100554_ce.png","gl/100554_gl.png","ours/100554_ours.png"],"rank_data":[1,2,0],"rank_result":["ours/100554_ours.png","ce/100554_ce.png","gl/100554_gl.png"],"rt":8068,"trial_type":"image-rank","trial_index":56,"time_elapsed":324890,"internal_node_id":"0.0-56.0"},{"src":["ours/022383_ours.png","ce/022383_ce.png","gl/022383_gl.png"],"rank_data":[0,2,1],"rank_result":["ours/022383_ours.png","gl/022383_gl.png","ce/022383_ce.png"],"rt":4031,"trial_type":"image-rank","trial_index":57,"time_elapsed":328921,"internal_node_id":"0.0-57.0"},{"src":["ce/199637_ce.png","ours/199637_ours.png","gl/199637_gl.png"],"rank_data":[1,0,2],"rank_result":["ours/199637_ours.png","ce/199637_ce.png","gl/199637_gl.png"],"rt":9496,"trial_type":"image-rank","trial_index":58,"time_elapsed":338419,"internal_node_id":"0.0-58.0"},{"src":["ours/183387_ours.png","gl/183387_gl.png","ce/183387_ce.png"],"rank_data":[0,2,1],"rank_result":["ours/183387_ours.png","ce/183387_ce.png","gl/183387_gl.png"],"rt":4698,"trial_type":"image-rank","trial_index":59,"time_elapsed":343118,"internal_node_id":"0.0-59.0"},{"src":["gl/074868_gl.png","ce/074868_ce.png","ours/074868_ours.png"],"rank_data":[1,2,0],"rank_result":["ours/074868_ours.png","gl/074868_gl.png","ce/074868_ce.png"],"rt":6680,"trial_type":"image-rank","trial_index":60,"time_elapsed":349798,"internal_node_id":"0.0-60.0"},{"src":["ce/170211_ce.png","ours/170211_ours.png","gl/170211_gl.png"],"rank_data":[1,0,2],"rank_result":["ours/170211_ours.png","ce/170211_ce.png","gl/170211_gl.png"],"rt":4642,"trial_type":"image-rank","trial_index":61,"time_elapsed":354441,"internal_node_id":"0.0-61.0"},{"src":["gl/111913_gl.png","ce/111913_ce.png","ours/111913_ours.png"],"rank_data":[2,1,0],"rank_result":["ours/111913_ours.png","ce/111913_ce.png","gl/111913_gl.png"],"rt":4280,"trial_type":"image-rank","trial_index":62,"time_elapsed":358721,"internal_node_id":"0.0-62.0"},{"src":["gl/196288_gl.png","ce/196288_ce.png","ours/196288_ours.png"],"rank_data":[1,2,0],"rank_result":["ours/196288_ours.png","gl/196288_gl.png","ce/196288_ce.png"],"rt":8005,"trial_type":"image-rank","trial_index":63,"time_elapsed":366728,"internal_node_id":"0.0-63.0"},{"src":["gl/156433_gl.png","ce/156433_ce.png","ours/156433_ours.png"],"rank_data":[1,2,0],"rank_result":["ours/156433_ours.png","gl/156433_gl.png","ce/156433_ce.png"],"rt":4394,"trial_type":"image-rank","trial_index":64,"time_elapsed":371122,"internal_node_id":"0.0-64.0"},{"src":["gl/150130_gl.png","ce/150130_ce.png","ours/150130_ours.png"],"rank_data":[2,1,0],"rank_result":["ours/150130_ours.png","ce/150130_ce.png","gl/150130_gl.png"],"rt":4910,"trial_type":"image-rank","trial_index":65,"time_elapsed":376033,"internal_node_id":"0.0-65.0"},{"src":["ce/040227_ce.png","ours/040227_ours.png","gl/040227_gl.png"],"rank_data":[1,0,2],"rank_result":["ours/040227_ours.png","ce/040227_ce.png","gl/040227_gl.png"],"rt":7766,"trial_type":"image-rank","trial_index":66,"time_elapsed":383800,"internal_node_id":"0.0-66.0"},{"src":["ours/145741_ours.png","ce/145741_ce.png","gl/145741_gl.png"],"rank_data":[0,1,2],"rank_result":["ours/145741_ours.png","ce/145741_ce.png","gl/145741_gl.png"],"rt":5359,"trial_type":"image-rank","trial_index":67,"time_elapsed":389159,"internal_node_id":"0.0-67.0"},{"src":["gl/196728_gl.png","ours/196728_ours.png","ce/196728_ce.png"],"rank_data":[2,1,0],"rank_result":["ce/196728_ce.png","ours/196728_ours.png","gl/196728_gl.png"],"rt":6541,"trial_type":"image-rank","trial_index":68,"time_elapsed":395700,"internal_node_id":"0.0-68.0"},{"src":["gl/174583_gl.png","ours/174583_ours.png","ce/174583_ce.png"],"rank_data":[2,0,1],"rank_result":["ours/174583_ours.png","ce/174583_ce.png","gl/174583_gl.png"],"rt":4970,"trial_type":"image-rank","trial_index":69,"time_elapsed":400671,"internal_node_id":"0.0-69.0"},{"src":["gl/031702_gl.png","ours/031702_ours.png","ce/031702_ce.png"],"rank_data":[2,1,0],"rank_result":["ce/031702_ce.png","ours/031702_ours.png","gl/031702_gl.png"],"rt":5754,"trial_type":"image-rank","trial_index":70,"time_elapsed":406426,"internal_node_id":"0.0-70.0"},{"src":["gl/046861_gl.png","ce/046861_ce.png","ours/046861_ours.png"],"rank_data":[1,2,0],"rank_result":["ours/046861_ours.png","gl/046861_gl.png","ce/046861_ce.png"],"rt":4193,"trial_type":"image-rank","trial_index":71,"time_elapsed":410619,"internal_node_id":"0.0-71.0"},{"src":["gl/136215_gl.png","ours/136215_ours.png","ce/136215_ce.png"],"rank_data":[1,0,2],"rank_result":["ours/136215_ours.png","gl/136215_gl.png","ce/136215_ce.png"],"rt":6020,"trial_type":"image-rank","trial_index":72,"time_elapsed":416639,"internal_node_id":"0.0-72.0"},{"src":["gl/126913_gl.png","ce/126913_ce.png","ours/126913_ours.png"],"rank_data":[2,1,0],"rank_result":["ours/126913_ours.png","ce/126913_ce.png","gl/126913_gl.png"],"rt":4927,"trial_type":"image-rank","trial_index":73,"time_elapsed":421567,"internal_node_id":"0.0-73.0"},{"src":["gl/042576_gl.png","ce/042576_ce.png","ours/042576_ours.png"],"rank_data":[1,2,0],"rank_result":["ours/042576_ours.png","gl/042576_gl.png","ce/042576_ce.png"],"rt":4255,"trial_type":"image-rank","trial_index":74,"time_elapsed":425824,"internal_node_id":"0.0-74.0"},{"src":["ce/060193_ce.png","ours/060193_ours.png","gl/060193_gl.png"],"rank_data":[1,0,2],"rank_result":["ours/060193_ours.png","ce/060193_ce.png","gl/060193_gl.png"],"rt":5160,"trial_type":"image-rank","trial_index":75,"time_elapsed":430984,"internal_node_id":"0.0-75.0"},{"src":["ce/194223_ce.png","ours/194223_ours.png","gl/194223_gl.png"],"rank_data":[2,0,1],"rank_result":["ours/194223_ours.png","gl/194223_gl.png","ce/194223_ce.png"],"rt":5594,"trial_type":"image-rank","trial_index":76,"time_elapsed":436579,"internal_node_id":"0.0-76.0"},{"src":["gl/006394_gl.png","ce/006394_ce.png","ours/006394_ours.png"],"rank_data":[2,0,1],"rank_result":["ce/006394_ce.png","ours/006394_ours.png","gl/006394_gl.png"],"rt":6152,"trial_type":"image-rank","trial_index":77,"time_elapsed":442732,"internal_node_id":"0.0-77.0"},{"src":["gl/188170_gl.png","ce/188170_ce.png","ours/188170_ours.png"],"rank_data":[2,1,0],"rank_result":["ours/188170_ours.png","ce/188170_ce.png","gl/188170_gl.png"],"rt":4027,"trial_type":"image-rank","trial_index":78,"time_elapsed":446759,"internal_node_id":"0.0-78.0"},{"src":["ours/173707_ours.png","ce/173707_ce.png","gl/173707_gl.png"],"rank_data":[2,1,0],"rank_result":["gl/173707_gl.png","ce/173707_ce.png","ours/173707_ours.png"],"rt":5769,"trial_type":"image-rank","trial_index":79,"time_elapsed":452529,"internal_node_id":"0.0-79.0"},{"src":["ours/111232_ours.png","gl/111232_gl.png","ce/111232_ce.png"],"rank_data":[0,1,2],"rank_result":["ours/111232_ours.png","gl/111232_gl.png","ce/111232_ce.png"],"rt":5567,"trial_type":"image-rank","trial_index":80,"time_elapsed":458097,"internal_node_id":"0.0-80.0"},{"src":["ours/107096_ours.png","gl/107096_gl.png","ce/107096_ce.png"],"rank_data":[0,2,1],"rank_result":["ours/107096_ours.png","ce/107096_ce.png","gl/107096_gl.png"],"rt":3705,"trial_type":"image-rank","trial_index":81,"time_elapsed":461802,"internal_node_id":"0.0-81.0"},{"src":["gl/032536_gl.png","ours/032536_ours.png","ce/032536_ce.png"],"rank_data":[2,0,1],"rank_result":["ours/032536_ours.png","ce/032536_ce.png","gl/032536_gl.png"],"rt":6908,"trial_type":"image-rank","trial_index":82,"time_elapsed":468711,"internal_node_id":"0.0-82.0"},{"src":["ours/130845_ours.png","gl/130845_gl.png","ce/130845_ce.png"],"rank_data":[0,1,2],"rank_result":["ours/130845_ours.png","gl/130845_gl.png","ce/130845_ce.png"],"rt":6005,"trial_type":"image-rank","trial_index":83,"time_elapsed":474717,"internal_node_id":"0.0-83.0"},{"src":["ours/100271_ours.png","ce/100271_ce.png","gl/100271_gl.png"],"rank_data":[0,1,2],"rank_result":["ours/100271_ours.png","ce/100271_ce.png","gl/100271_gl.png"],"rt":7197,"trial_type":"image-rank","trial_index":84,"time_elapsed":481915,"internal_node_id":"0.0-84.0"},{"src":["ce/069259_ce.png","gl/069259_gl.png","ours/069259_ours.png"],"rank_data":[2,1,0],"rank_result":["ours/069259_ours.png","gl/069259_gl.png","ce/069259_ce.png"],"rt":7651,"trial_type":"image-rank","trial_index":85,"time_elapsed":489566,"internal_node_id":"0.0-85.0"},{"src":["gl/079814_gl.png","ce/079814_ce.png","ours/079814_ours.png"],"rank_data":[2,1,0],"rank_result":["ours/079814_ours.png","ce/079814_ce.png","gl/079814_gl.png"],"rt":4933,"trial_type":"image-rank","trial_index":86,"time_elapsed":494499,"internal_node_id":"0.0-86.0"},{"src":["gl/107414_gl.png","ours/107414_ours.png","ce/107414_ce.png"],"rank_data":[1,0,2],"rank_result":["ours/107414_ours.png","gl/107414_gl.png","ce/107414_ce.png"],"rt":7174,"trial_type":"image-rank","trial_index":87,"time_elapsed":501673,"internal_node_id":"0.0-87.0"},{"src":["ce/078413_ce.png","ours/078413_ours.png","gl/078413_gl.png"],"rank_data":[2,0,1],"rank_result":["ours/078413_ours.png","gl/078413_gl.png","ce/078413_ce.png"],"rt":4309,"trial_type":"image-rank","trial_index":88,"time_elapsed":505983,"internal_node_id":"0.0-88.0"},{"src":["gl/003354_gl.png","ce/003354_ce.png","ours/003354_ours.png"],"rank_data":[2,1,0],"rank_result":["ours/003354_ours.png","ce/003354_ce.png","gl/003354_gl.png"],"rt":4593,"trial_type":"image-rank","trial_index":89,"time_elapsed":510576,"internal_node_id":"0.0-89.0"},{"src":["ours/107389_ours.png","ce/107389_ce.png","gl/107389_gl.png"],"rank_data":[2,1,0],"rank_result":["gl/107389_gl.png","ce/107389_ce.png","ours/107389_ours.png"],"rt":9782,"trial_type":"image-rank","trial_index":90,"time_elapsed":520359,"internal_node_id":"0.0-90.0"},{"src":["ours/120198_ours.png","gl/120198_gl.png","ce/120198_ce.png"],"rank_data":[0,2,1],"rank_result":["ours/120198_ours.png","ce/120198_ce.png","gl/120198_gl.png"],"rt":9552,"trial_type":"image-rank","trial_index":91,"time_elapsed":529912,"internal_node_id":"0.0-91.0"},{"src":["ours/143167_ours.png","ce/143167_ce.png","gl/143167_gl.png"],"rank_data":[1,0,2],"rank_result":["ce/143167_ce.png","ours/143167_ours.png","gl/143167_gl.png"],"rt":5907,"trial_type":"image-rank","trial_index":92,"time_elapsed":535820,"internal_node_id":"0.0-92.0"},{"src":["ours/116802_ours.png","gl/116802_gl.png","ce/116802_ce.png"],"rank_data":[0,2,1],"rank_result":["ours/116802_ours.png","ce/116802_ce.png","gl/116802_gl.png"],"rt":5393,"trial_type":"image-rank","trial_index":93,"time_elapsed":541214,"internal_node_id":"0.0-93.0"},{"src":["ours/073808_ours.png","gl/073808_gl.png","ce/073808_ce.png"],"rank_data":[0,2,1],"rank_result":["ours/073808_ours.png","ce/073808_ce.png","gl/073808_gl.png"],"rt":7289,"trial_type":"image-rank","trial_index":94,"time_elapsed":548504,"internal_node_id":"0.0-94.0"},{"src":["ours/147162_ours.png","gl/147162_gl.png","ce/147162_ce.png"],"rank_data":[0,2,1],"rank_result":["ours/147162_ours.png","ce/147162_ce.png","gl/147162_gl.png"],"rt":5859,"trial_type":"image-rank","trial_index":95,"time_elapsed":554363,"internal_node_id":"0.0-95.0"},{"src":["ours/138637_ours.png","ce/138637_ce.png","gl/138637_gl.png"],"rank_data":[0,2,1],"rank_result":["ours/138637_ours.png","gl/138637_gl.png","ce/138637_ce.png"],"rt":6817,"trial_type":"image-rank","trial_index":96,"time_elapsed":561180,"internal_node_id":"0.0-96.0"},{"src":["ce/033386_ce.png","gl/033386_gl.png","ours/033386_ours.png"],"rank_data":[0,2,1],"rank_result":["ce/033386_ce.png","ours/033386_ours.png","gl/033386_gl.png"],"rt":4981,"trial_type":"image-rank","trial_index":97,"time_elapsed":566161,"internal_node_id":"0.0-97.0"},{"src":["ours/093857_ours.png","gl/093857_gl.png","ce/093857_ce.png"],"rank_data":[0,1,2],"rank_result":["ours/093857_ours.png","gl/093857_gl.png","ce/093857_ce.png"],"rt":5989,"trial_type":"image-rank","trial_index":98,"time_elapsed":572151,"internal_node_id":"0.0-98.0"},{"src":["ours/083931_ours.png","gl/083931_gl.png","ce/083931_ce.png"],"rank_data":[0,1,2],"rank_result":["ours/083931_ours.png","gl/083931_gl.png","ce/083931_ce.png"],"rt":6742,"trial_type":"image-rank","trial_index":99,"time_elapsed":578893,"internal_node_id":"0.0-99.0"},{"src":["ce/090295_ce.png","gl/090295_gl.png","ours/090295_ours.png"],"rank_data":[2,1,0],"rank_result":["ours/090295_ours.png","gl/090295_gl.png","ce/090295_ce.png"],"rt":5110,"trial_type":"image-rank","trial_index":100,"time_elapsed":584005,"internal_node_id":"0.0-100.0"},{"src":["ce/019324_ce.png","ours/019324_ours.png","gl/019324_gl.png"],"rank_data":[1,0,2],"rank_result":["ours/019324_ours.png","ce/019324_ce.png","gl/019324_gl.png"],"rt":10213,"trial_type":"image-rank","trial_index":101,"time_elapsed":594218,"internal_node_id":"0.0-101.0"},{"src":["ce/079380_ce.png","ours/079380_ours.png","gl/079380_gl.png"],"rank_data":[2,0,1],"rank_result":["ours/079380_ours.png","gl/079380_gl.png","ce/079380_ce.png"],"rt":4927,"trial_type":"image-rank","trial_index":102,"time_elapsed":599146,"internal_node_id":"0.0-102.0"}]