[{"rt":2052,"stimulus":"Welcome to the experiment. Press any key to begin.","key_press":74,"trial_type":"html-keyboard-response","trial_index":0,"time_elapsed":2053,"internal_node_id":"0.0-0.0"},{"rt":20126,"stimulus":"<p>In this experiment, three images of people will appear in the center of the screen.</p><p>Your task is to rank these images based on how <strong>real</strong> you think they are.<p>The ranking level is between 1 to 3, with <strong>1</strong> representing the most real one and <strong>3</strong> the fakest one.</p><p>The time to rank is not limited. When you finish ranking, click the <strong>Continue</strong> button to continue.</p>","key_press":75,"trial_type":"html-keyboard-response","trial_index":1,"time_elapsed":22180,"internal_node_id":"0.0-1.0"},{"rt":null,"stimulus":"<div style=\"font-size:60px;\"></div>","key_press":null,"label":"fixation","trial_type":"html-keyboard-response","trial_index":2,"time_elapsed":23184,"internal_node_id":"0.0-2.0"},{"src":["ce/172340_ce.png","gl/172340_gl.png","ours/172340_ours.png"],"rank_data":[2,0,1],"rank_result":["gl/172340_gl.png","ours/172340_ours.png","ce/172340_ce.png"],"rt":18326,"trial_type":"image-rank","trial_index":3,"time_elapsed":41510,"internal_node_id":"0.0-3.0"},{"src":["ours/065879_ours.png","ce/065879_ce.png","gl/065879_gl.png"],"rank_data":[0,1,2],"rank_result":["ours/065879_ours.png","ce/065879_ce.png","gl/065879_gl.png"],"rt":12564,"trial_type":"image-rank","trial_index":4,"time_elapsed":54075,"internal_node_id":"0.0-4.0"},{"src":["ce/077362_ce.png","gl/077362_gl.png","ours/077362_ours.png"],"rank_data":[1,2,0],"rank_result":["ours/077362_ours.png","ce/077362_ce.png","gl/077362_gl.png"],"rt":10910,"trial_type":"image-rank","trial_index":5,"time_elapsed":64986,"internal_node_id":"0.0-5.0"},{"src":["ours/038677_ours.png","ce/038677_ce.png","gl/038677_gl.png"],"rank_data":[0,1,2],"rank_result":["ours/038677_ours.png","ce/038677_ce.png","gl/038677_gl.png"],"rt":6630,"trial_type":"image-rank","trial_index":6,"time_elapsed":71616,"internal_node_id":"0.0-6.0"},{"src":["ce/116629_ce.png","ours/116629_ours.png","gl/116629_gl.png"],"rank_data":[1,0,2],"rank_result":["ours/116629_ours.png","ce/116629_ce.png","gl/116629_gl.png"],"rt":6344,"trial_type":"image-rank","trial_index":7,"time_elapsed":77962,"internal_node_id":"0.0-7.0"},{"src":["ours/195958_ours.png","ce/195958_ce.png","gl/195958_gl.png"],"rank_data":[0,2,1],"rank_result":["ours/195958_ours.png","gl/195958_gl.png","ce/195958_ce.png"],"rt":8115,"trial_type":"image-rank","trial_index":8,"time_elapsed":86077,"internal_node_id":"0.0-8.0"},{"src":["ours/058441_ours.png","ce/058441_ce.png","gl/058441_gl.png"],"rank_data":[0,2,1],"rank_result":["ours/058441_ours.png","gl/058441_gl.png","ce/058441_ce.png"],"rt":6686,"trial_type":"image-rank","trial_index":9,"time_elapsed":92763,"internal_node_id":"0.0-9.0"},{"src":["gl/190186_gl.png","ours/190186_ours.png","ce/190186_ce.png"],"rank_data":[2,0,1],"rank_result":["ours/190186_ours.png","ce/190186_ce.png","gl/190186_gl.png"],"rt":4905,"trial_type":"image-rank","trial_index":10,"time_elapsed":97669,"internal_node_id":"0.0-10.0"},{"src":["ce/157657_ce.png","gl/157657_gl.png","ours/157657_ours.png"],"rank_data":[2,1,0],"rank_result":["ours/157657_ours.png","gl/157657_gl.png","ce/157657_ce.png"],"rt":8507,"trial_type":"image-rank","trial_index":11,"time_elapsed":106177,"internal_node_id":"0.0-11.0"},{"src":["ce/148991_ce.png","ours/148991_ours.png","gl/148991_gl.png"],"rank_data":[1,0,2],"rank_result":["ours/148991_ours.png","ce/148991_ce.png","gl/148991_gl.png"],"rt":9120,"trial_type":"image-rank","trial_index":12,"time_elapsed":115298,"internal_node_id":"0.0-12.0"},{"src":["ce/069132_ce.png","ours/069132_ours.png","gl/069132_gl.png"],"rank_data":[2,0,1],"rank_result":["ours/069132_ours.png","gl/069132_gl.png","ce/069132_ce.png"],"rt":6715,"trial_type":"image-rank","trial_index":13,"time_elapsed":122014,"internal_node_id":"0.0-13.0"},{"src":["gl/031338_gl.png","ce/031338_ce.png","ours/031338_ours.png"],"rank_data":[2,1,0],"rank_result":["ours/031338_ours.png","ce/031338_ce.png","gl/031338_gl.png"],"rt":11140,"trial_type":"image-rank","trial_index":14,"time_elapsed":133154,"internal_node_id":"0.0-14.0"},{"src":["ce/009277_ce.png","gl/009277_gl.png","ours/009277_ours.png"],"rank_data":[1,2,0],"rank_result":["ours/009277_ours.png","ce/009277_ce.png","gl/009277_gl.png"],"rt":6355,"trial_type":"image-rank","trial_index":15,"time_elapsed":139509,"internal_node_id":"0.0-15.0"},{"src":["ours/022383_ours.png","gl/022383_gl.png","ce/022383_ce.png"],"rank_data":[0,1,2],"rank_result":["ours/022383_ours.png","gl/022383_gl.png","ce/022383_ce.png"],"rt":5411,"trial_type":"image-rank","trial_index":16,"time_elapsed":144921,"internal_node_id":"0.0-16.0"},{"src":["ours/024137_ours.png","gl/024137_gl.png","ce/024137_ce.png"],"rank_data":[0,2,1],"rank_result":["ours/024137_ours.png","ce/024137_ce.png","gl/024137_gl.png"],"rt":7937,"trial_type":"image-rank","trial_index":17,"time_elapsed":152858,"internal_node_id":"0.0-17.0"},{"src":["ce/156206_ce.png","gl/156206_gl.png","ours/156206_ours.png"],"rank_data":[2,1,0],"rank_result":["ours/156206_ours.png","gl/156206_gl.png","ce/156206_ce.png"],"rt":4610,"trial_type":"image-rank","trial_index":18,"time_elapsed":157469,"internal_node_id":"0.0-18.0"},{"src":["ce/142566_ce.png","gl/142566_gl.png","ours/142566_ours.png"],"rank_data":[1,2,0],"rank_result":["ours/142566_ours.png","ce/142566_ce.png","gl/142566_gl.png"],"rt":8130,"trial_type":"image-rank","trial_index":19,"time_elapsed":165599,"internal_node_id":"0.0-19.0"},{"src":["ce/093173_ce.png","gl/093173_gl.png","ours/093173_ours.png"],"rank_data":[1,2,0],"rank_result":["ours/093173_ours.png","ce/093173_ce.png","gl/093173_gl.png"],"rt":6330,"trial_type":"image-rank","trial_index":20,"time_elapsed":171929,"internal_node_id":"0.0-20.0"},{"src":["ours/034154_ours.png","gl/034154_gl.png","ce/034154_ce.png"],"rank_data":[0,2,1],"rank_result":["ours/034154_ours.png","ce/034154_ce.png","gl/034154_gl.png"],"rt":4835,"trial_type":"image-rank","trial_index":21,"time_elapsed":176765,"internal_node_id":"0.0-21.0"},{"src":["gl/181529_gl.png","ce/181529_ce.png","ours/181529_ours.png"],"rank_data":[1,2,0],"rank_result":["ours/181529_ours.png","gl/181529_gl.png","ce/181529_ce.png"],"rt":6801,"trial_type":"image-rank","trial_index":22,"time_elapsed":183567,"internal_node_id":"0.0-22.0"},{"src":["ce/166879_ce.png","gl/166879_gl.png","ours/166879_ours.png"],"rank_data":[1,2,0],"rank_result":["ours/166879_ours.png","ce/166879_ce.png","gl/166879_gl.png"],"rt":10923,"trial_type":"image-rank","trial_index":23,"time_elapsed":194490,"internal_node_id":"0.0-23.0"},{"src":["ce/160584_ce.png","ours/160584_ours.png","gl/160584_gl.png"],"rank_data":[2,0,1],"rank_result":["ours/160584_ours.png","gl/160584_gl.png","ce/160584_ce.png"],"rt":6404,"trial_type":"image-rank","trial_index":24,"time_elapsed":200894,"internal_node_id":"0.0-24.0"},{"src":["ours/031754_ours.png","ce/031754_ce.png","gl/031754_gl.png"],"rank_data":[0,2,1],"rank_result":["ours/031754_ours.png","gl/031754_gl.png","ce/031754_ce.png"],"rt":4386,"trial_type":"image-rank","trial_index":25,"time_elapsed":205280,"internal_node_id":"0.0-25.0"},{"src":["ours/200410_ours.png","ce/200410_ce.png","gl/200410_gl.png"],"rank_data":[0,1,2],"rank_result":["ours/200410_ours.png","ce/200410_ce.png","gl/200410_gl.png"],"rt":4690,"trial_type":"image-rank","trial_index":26,"time_elapsed":209970,"internal_node_id":"0.0-26.0"},{"src":["ours/008209_ours.png","gl/008209_gl.png","ce/008209_ce.png"],"rank_data":[0,1,2],"rank_result":["ours/008209_ours.png","gl/008209_gl.png","ce/008209_ce.png"],"rt":8372,"trial_type":"image-rank","trial_index":27,"time_elapsed":218342,"internal_node_id":"0.0-27.0"},{"src":["gl/045942_gl.png","ours/045942_ours.png","ce/045942_ce.png"],"rank_data":[1,0,2],"rank_result":["ours/045942_ours.png","gl/045942_gl.png","ce/045942_ce.png"],"rt":6120,"trial_type":"image-rank","trial_index":28,"time_elapsed":224463,"internal_node_id":"0.0-28.0"},{"src":["ours/156643_ours.png","gl/156643_gl.png","ce/156643_ce.png"],"rank_data":[0,1,2],"rank_result":["ours/156643_ours.png","gl/156643_gl.png","ce/156643_ce.png"],"rt":8427,"trial_type":"image-rank","trial_index":29,"time_elapsed":232890,"internal_node_id":"0.0-29.0"},{"src":["ours/010558_ours.png","ce/010558_ce.png","gl/010558_gl.png"],"rank_data":[0,2,1],"rank_result":["ours/010558_ours.png","gl/010558_gl.png","ce/010558_ce.png"],"rt":4352,"trial_type":"image-rank","trial_index":30,"time_elapsed":237242,"internal_node_id":"0.0-30.0"},{"src":["ours/027107_ours.png","ce/027107_ce.png","gl/027107_gl.png"],"rank_data":[0,2,1],"rank_result":["ours/027107_ours.png","gl/027107_gl.png","ce/027107_ce.png"],"rt":7983,"trial_type":"image-rank","trial_index":31,"time_elapsed":245226,"internal_node_id":"0.0-31.0"},{"src":["gl/118893_gl.png","ce/118893_ce.png","ours/118893_ours.png"],"rank_data":[0,2,1],"rank_result":["gl/118893_gl.png","ours/118893_ours.png","ce/118893_ce.png"],"rt":8259,"trial_type":"image-rank","trial_index":32,"time_elapsed":253486,"internal_node_id":"0.0-32.0"},{"src":["gl/_gl.png","ce/_ce.png","ours/_ours.png"],"rank_data":[0,1,2],"rank_result":["gl/_gl.png","ce/_ce.png","ours/_ours.png"],"rt":7957,"trial_type":"image-rank","trial_index":33,"time_elapsed":261443,"internal_node_id":"0.0-33.0"},{"src":["ce/190780_ce.png","ours/190780_ours.png","gl/190780_gl.png"],"rank_data":[1,0,2],"rank_result":["ours/190780_ours.png","ce/190780_ce.png","gl/190780_gl.png"],"rt":7109,"trial_type":"image-rank","trial_index":34,"time_elapsed":268552,"internal_node_id":"0.0-34.0"},{"src":["gl/168058_gl.png","ce/168058_ce.png","ours/168058_ours.png"],"rank_data":[1,2,0],"rank_result":["ours/168058_ours.png","gl/168058_gl.png","ce/168058_ce.png"],"rt":5843,"trial_type":"image-rank","trial_index":35,"time_elapsed":274397,"internal_node_id":"0.0-35.0"},{"src":["ours/196669_ours.png","ce/196669_ce.png","gl/196669_gl.png"],"rank_data":[0,2,1],"rank_result":["ours/196669_ours.png","gl/196669_gl.png","ce/196669_ce.png"],"rt":8033,"trial_type":"image-rank","trial_index":36,"time_elapsed":282431,"internal_node_id":"0.0-36.0"},{"src":["ce/067351_ce.png","gl/067351_gl.png","ours/067351_ours.png"],"rank_data":[2,1,0],"rank_result":["ours/067351_ours.png","gl/067351_gl.png","ce/067351_ce.png"],"rt":5526,"trial_type":"image-rank","trial_index":37,"time_elapsed":287957,"internal_node_id":"0.0-37.0"},{"src":["ce/021960_ce.png","gl/021960_gl.png","ours/021960_ours.png"],"rank_data":[2,1,0],"rank_result":["ours/021960_ours.png","gl/021960_gl.png","ce/021960_ce.png"],"rt":9229,"trial_type":"image-rank","trial_index":38,"time_elapsed":297186,"internal_node_id":"0.0-38.0"},{"src":["ours/133632_ours.png","ce/133632_ce.png","gl/133632_gl.png"],"rank_data":[0,2,1],"rank_result":["ours/133632_ours.png","gl/133632_gl.png","ce/133632_ce.png"],"rt":3865,"trial_type":"image-rank","trial_index":39,"time_elapsed":301052,"internal_node_id":"0.0-39.0"},{"src":["gl/114466_gl.png","ce/114466_ce.png","ours/114466_ours.png"],"rank_data":[1,2,0],"rank_result":["ours/114466_ours.png","gl/114466_gl.png","ce/114466_ce.png"],"rt":4875,"trial_type":"image-rank","trial_index":40,"time_elapsed":305927,"internal_node_id":"0.0-40.0"},{"src":["ce/108144_ce.png","ours/108144_ours.png","gl/108144_gl.png"],"rank_data":[2,0,1],"rank_result":["ours/108144_ours.png","gl/108144_gl.png","ce/108144_ce.png"],"rt":4505,"trial_type":"image-rank","trial_index":41,"time_elapsed":310432,"internal_node_id":"0.0-41.0"},{"src":["ours/077276_ours.png","gl/077276_gl.png","ce/077276_ce.png"],"rank_data":[0,1,2],"rank_result":["ours/077276_ours.png","gl/077276_gl.png","ce/077276_ce.png"],"rt":5032,"trial_type":"image-rank","trial_index":42,"time_elapsed":315465,"internal_node_id":"0.0-42.0"},{"src":["ce/148830_ce.png","ours/148830_ours.png","gl/148830_gl.png"],"rank_data":[2,0,1],"rank_result":["ours/148830_ours.png","gl/148830_gl.png","ce/148830_ce.png"],"rt":5668,"trial_type":"image-rank","trial_index":43,"time_elapsed":321134,"internal_node_id":"0.0-43.0"},{"src":["ce/001631_ce.png","gl/001631_gl.png","ours/001631_ours.png"],"rank_data":[1,2,0],"rank_result":["ours/001631_ours.png","ce/001631_ce.png","gl/001631_gl.png"],"rt":6765,"trial_type":"image-rank","trial_index":44,"time_elapsed":327900,"internal_node_id":"0.0-44.0"},{"src":["gl/059455_gl.png","ce/059455_ce.png","ours/059455_ours.png"],"rank_data":[1,2,0],"rank_result":["ours/059455_ours.png","gl/059455_gl.png","ce/059455_ce.png"],"rt":4885,"trial_type":"image-rank","trial_index":45,"time_elapsed":332785,"internal_node_id":"0.0-45.0"},{"src":["gl/015312_gl.png","ce/015312_ce.png","ours/015312_ours.png"],"rank_data":[2,1,0],"rank_result":["ours/015312_ours.png","ce/015312_ce.png","gl/015312_gl.png"],"rt":6720,"trial_type":"image-rank","trial_index":46,"time_elapsed":339505,"internal_node_id":"0.0-46.0"},{"src":["ours/199637_ours.png","ce/199637_ce.png","gl/199637_gl.png"],"rank_data":[0,2,1],"rank_result":["ours/199637_ours.png","gl/199637_gl.png","ce/199637_ce.png"],"rt":18345,"trial_type":"image-rank","trial_index":47,"time_elapsed":357850,"internal_node_id":"0.0-47.0"},{"src":["ce/029213_ce.png","ours/029213_ours.png","gl/029213_gl.png"],"rank_data":[0,1,2],"rank_result":["ce/029213_ce.png","ours/029213_ours.png","gl/029213_gl.png"],"rt":4695,"trial_type":"image-rank","trial_index":48,"time_elapsed":362546,"internal_node_id":"0.0-48.0"},{"src":["ce/023964_ce.png","gl/023964_gl.png","ours/023964_ours.png"],"rank_data":[1,2,0],"rank_result":["ours/023964_ours.png","ce/023964_ce.png","gl/023964_gl.png"],"rt":7035,"trial_type":"image-rank","trial_index":49,"time_elapsed":369581,"internal_node_id":"0.0-49.0"},{"src":["ce/173457_ce.png","gl/173457_gl.png","ours/173457_ours.png"],"rank_data":[2,1,0],"rank_result":["ours/173457_ours.png","gl/173457_gl.png","ce/173457_ce.png"],"rt":4690,"trial_type":"image-rank","trial_index":50,"time_elapsed":374271,"internal_node_id":"0.0-50.0"},{"src":["ce/103333_ce.png","ours/103333_ours.png","gl/103333_gl.png"],"rank_data":[2,0,1],"rank_result":["ours/103333_ours.png","gl/103333_gl.png","ce/103333_ce.png"],"rt":5552,"trial_type":"image-rank","trial_index":51,"time_elapsed":379823,"internal_node_id":"0.0-51.0"},{"src":["ours/017249_ours.png","ce/017249_ce.png","gl/017249_gl.png"],"rank_data":[0,2,1],"rank_result":["ours/017249_ours.png","gl/017249_gl.png","ce/017249_ce.png"],"rt":5550,"trial_type":"image-rank","trial_index":52,"time_elapsed":385375,"internal_node_id":"0.0-52.0"},{"src":["gl/134603_gl.png","ce/134603_ce.png","ours/134603_ours.png"],"rank_data":[1,2,0],"rank_result":["ours/134603_ours.png","gl/134603_gl.png","ce/134603_ce.png"],"rt":4408,"trial_type":"image-rank","trial_index":53,"time_elapsed":389783,"internal_node_id":"0.0-53.0"},{"src":["ce/097885_ce.png","gl/097885_gl.png","ours/097885_ours.png"],"rank_data":[1,2,0],"rank_result":["ours/097885_ours.png","ce/097885_ce.png","gl/097885_gl.png"],"rt":6540,"trial_type":"image-rank","trial_index":54,"time_elapsed":396325,"internal_node_id":"0.0-54.0"},{"src":["ce/004609_ce.png","ours/004609_ours.png","gl/004609_gl.png"],"rank_data":[2,0,1],"rank_result":["ours/004609_ours.png","gl/004609_gl.png","ce/004609_ce.png"],"rt":5935,"trial_type":"image-rank","trial_index":55,"time_elapsed":402261,"internal_node_id":"0.0-55.0"},{"src":["ce/074220_ce.png","ours/074220_ours.png","gl/074220_gl.png"],"rank_data":[1,0,2],"rank_result":["ours/074220_ours.png","ce/074220_ce.png","gl/074220_gl.png"],"rt":5378,"trial_type":"image-rank","trial_index":56,"time_elapsed":407639,"internal_node_id":"0.0-56.0"},{"src":["gl/027808_gl.png","ours/027808_ours.png","ce/027808_ce.png"],"rank_data":[1,0,2],"rank_result":["ours/027808_ours.png","gl/027808_gl.png","ce/027808_ce.png"],"rt":5155,"trial_type":"image-rank","trial_index":57,"time_elapsed":412794,"internal_node_id":"0.0-57.0"},{"src":["ours/069583_ours.png","ce/069583_ce.png","gl/069583_gl.png"],"rank_data":[0,1,2],"rank_result":["ours/069583_ours.png","ce/069583_ce.png","gl/069583_gl.png"],"rt":5948,"trial_type":"image-rank","trial_index":58,"time_elapsed":418742,"internal_node_id":"0.0-58.0"},{"src":["ours/008966_ours.png","gl/008966_gl.png","ce/008966_ce.png"],"rank_data":[0,1,2],"rank_result":["ours/008966_ours.png","gl/008966_gl.png","ce/008966_ce.png"],"rt":4993,"trial_type":"image-rank","trial_index":59,"time_elapsed":423735,"internal_node_id":"0.0-59.0"},{"src":["ce/004197_ce.png","ours/004197_ours.png","gl/004197_gl.png"],"rank_data":[1,0,2],"rank_result":["ours/004197_ours.png","ce/004197_ce.png","gl/004197_gl.png"],"rt":5724,"trial_type":"image-rank","trial_index":60,"time_elapsed":429460,"internal_node_id":"0.0-60.0"},{"src":["ours/077318_ours.png","ce/077318_ce.png","gl/077318_gl.png"],"rank_data":[0,1,2],"rank_result":["ours/077318_ours.png","ce/077318_ce.png","gl/077318_gl.png"],"rt":6075,"trial_type":"image-rank","trial_index":61,"time_elapsed":435535,"internal_node_id":"0.0-61.0"},{"src":["ours/005809_ours.png","gl/005809_gl.png","ce/005809_ce.png"],"rank_data":[0,2,1],"rank_result":["ours/005809_ours.png","ce/005809_ce.png","gl/005809_gl.png"],"rt":6712,"trial_type":"image-rank","trial_index":62,"time_elapsed":442248,"internal_node_id":"0.0-62.0"},{"src":["ce/022790_ce.png","gl/022790_gl.png","ours/022790_ours.png"],"rank_data":[2,1,0],"rank_result":["ours/022790_ours.png","gl/022790_gl.png","ce/022790_ce.png"],"rt":4603,"trial_type":"image-rank","trial_index":63,"time_elapsed":446851,"internal_node_id":"0.0-63.0"},{"src":["gl/170607_gl.png","ours/170607_ours.png","ce/170607_ce.png"],"rank_data":[2,0,1],"rank_result":["ours/170607_ours.png","ce/170607_ce.png","gl/170607_gl.png"],"rt":5217,"trial_type":"image-rank","trial_index":64,"time_elapsed":452070,"internal_node_id":"0.0-64.0"},{"src":["ours/042137_ours.png","gl/042137_gl.png","ce/042137_ce.png"],"rank_data":[0,2,1],"rank_result":["ours/042137_ours.png","ce/042137_ce.png","gl/042137_gl.png"],"rt":9403,"trial_type":"image-rank","trial_index":65,"time_elapsed":461473,"internal_node_id":"0.0-65.0"},{"src":["ce/184370_ce.png","ours/184370_ours.png","gl/184370_gl.png"],"rank_data":[1,0,2],"rank_result":["ours/184370_ours.png","ce/184370_ce.png","gl/184370_gl.png"],"rt":7868,"trial_type":"image-rank","trial_index":66,"time_elapsed":469341,"internal_node_id":"0.0-66.0"},{"src":["gl/094874_gl.png","ours/094874_ours.png","ce/094874_ce.png"],"rank_data":[2,0,1],"rank_result":["ours/094874_ours.png","ce/094874_ce.png","gl/094874_gl.png"],"rt":6903,"trial_type":"image-rank","trial_index":67,"time_elapsed":476245,"internal_node_id":"0.0-67.0"},{"src":["ce/198959_ce.png","ours/198959_ours.png","gl/198959_gl.png"],"rank_data":[1,0,2],"rank_result":["ours/198959_ours.png","ce/198959_ce.png","gl/198959_gl.png"],"rt":5955,"trial_type":"image-rank","trial_index":68,"time_elapsed":482200,"internal_node_id":"0.0-68.0"},{"src":["ce/035673_ce.png","gl/035673_gl.png","ours/035673_ours.png"],"rank_data":[1,2,0],"rank_result":["ours/035673_ours.png","ce/035673_ce.png","gl/035673_gl.png"],"rt":4912,"trial_type":"image-rank","trial_index":69,"time_elapsed":487112,"internal_node_id":"0.0-69.0"},{"src":["gl/169957_gl.png","ce/169957_ce.png","ours/169957_ours.png"],"rank_data":[1,2,0],"rank_result":["ours/169957_ours.png","gl/169957_gl.png","ce/169957_ce.png"],"rt":5705,"trial_type":"image-rank","trial_index":70,"time_elapsed":492818,"internal_node_id":"0.0-70.0"},{"src":["ours/052091_ours.png","gl/052091_gl.png","ce/052091_ce.png"],"rank_data":[0,1,2],"rank_result":["ours/052091_ours.png","gl/052091_gl.png","ce/052091_ce.png"],"rt":7698,"trial_type":"image-rank","trial_index":71,"time_elapsed":500517,"internal_node_id":"0.0-71.0"},{"src":["ours/054622_ours.png","ce/054622_ce.png","gl/054622_gl.png"],"rank_data":[0,2,1],"rank_result":["ours/054622_ours.png","gl/054622_gl.png","ce/054622_ce.png"],"rt":4483,"trial_type":"image-rank","trial_index":72,"time_elapsed":505001,"internal_node_id":"0.0-72.0"},{"src":["ce/009994_ce.png","gl/009994_gl.png","ours/009994_ours.png"],"rank_data":[1,2,0],"rank_result":["ours/009994_ours.png","ce/009994_ce.png","gl/009994_gl.png"],"rt":4960,"trial_type":"image-rank","trial_index":73,"time_elapsed":509961,"internal_node_id":"0.0-73.0"},{"src":["ours/103433_ours.png","ce/103433_ce.png","gl/103433_gl.png"],"rank_data":[0,1,2],"rank_result":["ours/103433_ours.png","ce/103433_ce.png","gl/103433_gl.png"],"rt":4691,"trial_type":"image-rank","trial_index":74,"time_elapsed":514652,"internal_node_id":"0.0-74.0"},{"src":["ce/085431_ce.png","ours/085431_ours.png","gl/085431_gl.png"],"rank_data":[1,0,2],"rank_result":["ours/085431_ours.png","ce/085431_ce.png","gl/085431_gl.png"],"rt":4609,"trial_type":"image-rank","trial_index":75,"time_elapsed":519263,"internal_node_id":"0.0-75.0"},{"src":["ce/026120_ce.png","gl/026120_gl.png","ours/026120_ours.png"],"rank_data":[1,2,0],"rank_result":["ours/026120_ours.png","ce/026120_ce.png","gl/026120_gl.png"],"rt":5849,"trial_type":"image-rank","trial_index":76,"time_elapsed":525113,"internal_node_id":"0.0-76.0"},{"src":["ce/073163_ce.png","gl/073163_gl.png","ours/073163_ours.png"],"rank_data":[1,0,2],"rank_result":["gl/073163_gl.png","ce/073163_ce.png","ours/073163_ours.png"],"rt":9032,"trial_type":"image-rank","trial_index":77,"time_elapsed":534145,"internal_node_id":"0.0-77.0"},{"src":["gl/033171_gl.png","ours/033171_ours.png","ce/033171_ce.png"],"rank_data":[1,0,2],"rank_result":["ours/033171_ours.png","gl/033171_gl.png","ce/033171_ce.png"],"rt":5861,"trial_type":"image-rank","trial_index":78,"time_elapsed":540006,"internal_node_id":"0.0-78.0"},{"src":["ours/107663_ours.png","gl/107663_gl.png","ce/107663_ce.png"],"rank_data":[1,0,2],"rank_result":["gl/107663_gl.png","ours/107663_ours.png","ce/107663_ce.png"],"rt":5575,"trial_type":"image-rank","trial_index":79,"time_elapsed":545581,"internal_node_id":"0.0-79.0"},{"src":["gl/121419_gl.png","ce/121419_ce.png","ours/121419_ours.png"],"rank_data":[1,2,0],"rank_result":["ours/121419_ours.png","gl/121419_gl.png","ce/121419_ce.png"],"rt":5114,"trial_type":"image-rank","trial_index":80,"time_elapsed":550696,"internal_node_id":"0.0-80.0"},{"src":["ce/171475_ce.png","gl/171475_gl.png","ours/171475_ours.png"],"rank_data":[1,2,0],"rank_result":["ours/171475_ours.png","ce/171475_ce.png","gl/171475_gl.png"],"rt":4863,"trial_type":"image-rank","trial_index":81,"time_elapsed":555560,"internal_node_id":"0.0-81.0"},{"src":["ce/032198_ce.png","ours/032198_ours.png","gl/032198_gl.png"],"rank_data":[1,0,2],"rank_result":["ours/032198_ours.png","ce/032198_ce.png","gl/032198_gl.png"],"rt":5360,"trial_type":"image-rank","trial_index":82,"time_elapsed":560921,"internal_node_id":"0.0-82.0"},{"src":["ours/036233_ours.png","ce/036233_ce.png","gl/036233_gl.png"],"rank_data":[0,1,2],"rank_result":["ours/036233_ours.png","ce/036233_ce.png","gl/036233_gl.png"],"rt":8858,"trial_type":"image-rank","trial_index":83,"time_elapsed":569779,"internal_node_id":"0.0-83.0"},{"src":["gl/101414_gl.png","ours/101414_ours.png","ce/101414_ce.png"],"rank_data":[2,0,1],"rank_result":["ours/101414_ours.png","ce/101414_ce.png","gl/101414_gl.png"],"rt":5980,"trial_type":"image-rank","trial_index":84,"time_elapsed":575759,"internal_node_id":"0.0-84.0"},{"src":["ce/060579_ce.png","ours/060579_ours.png","gl/060579_gl.png"],"rank_data":[2,1,0],"rank_result":["gl/060579_gl.png","ours/060579_ours.png","ce/060579_ce.png"],"rt":7782,"trial_type":"image-rank","trial_index":85,"time_elapsed":583542,"internal_node_id":"0.0-85.0"},{"src":["ours/079814_ours.png","ce/079814_ce.png","gl/079814_gl.png"],"rank_data":[0,2,1],"rank_result":["ours/079814_ours.png","gl/079814_gl.png","ce/079814_ce.png"],"rt":7869,"trial_type":"image-rank","trial_index":86,"time_elapsed":591412,"internal_node_id":"0.0-86.0"},{"src":["gl/129834_gl.png","ours/129834_ours.png","ce/129834_ce.png"],"rank_data":[2,0,1],"rank_result":["ours/129834_ours.png","ce/129834_ce.png","gl/129834_gl.png"],"rt":4604,"trial_type":"image-rank","trial_index":87,"time_elapsed":596017,"internal_node_id":"0.0-87.0"},{"src":["ours/202543_ours.png","gl/202543_gl.png","ce/202543_ce.png"],"rank_data":[0,2,1],"rank_result":["ours/202543_ours.png","ce/202543_ce.png","gl/202543_gl.png"],"rt":5078,"trial_type":"image-rank","trial_index":88,"time_elapsed":601096,"internal_node_id":"0.0-88.0"},{"src":["ours/062220_ours.png","ce/062220_ce.png","gl/062220_gl.png"],"rank_data":[0,1,2],"rank_result":["ours/062220_ours.png","ce/062220_ce.png","gl/062220_gl.png"],"rt":6011,"trial_type":"image-rank","trial_index":89,"time_elapsed":607107,"internal_node_id":"0.0-89.0"},{"src":["gl/154611_gl.png","ce/154611_ce.png","ours/154611_ours.png"],"rank_data":[2,1,0],"rank_result":["ours/154611_ours.png","ce/154611_ce.png","gl/154611_gl.png"],"rt":8811,"trial_type":"image-rank","trial_index":90,"time_elapsed":615918,"internal_node_id":"0.0-90.0"},{"src":["ce/026428_ce.png","gl/026428_gl.png","ours/026428_ours.png"],"rank_data":[1,2,0],"rank_result":["ours/026428_ours.png","ce/026428_ce.png","gl/026428_gl.png"],"rt":5338,"trial_type":"image-rank","trial_index":91,"time_elapsed":621257,"internal_node_id":"0.0-91.0"},{"src":["ours/172170_ours.png","gl/172170_gl.png","ce/172170_ce.png"],"rank_data":[0,2,1],"rank_result":["ours/172170_ours.png","ce/172170_ce.png","gl/172170_gl.png"],"rt":4869,"trial_type":"image-rank","trial_index":92,"time_elapsed":626126,"internal_node_id":"0.0-92.0"},{"src":["ours/107414_ours.png","gl/107414_gl.png","ce/107414_ce.png"],"rank_data":[0,2,1],"rank_result":["ours/107414_ours.png","ce/107414_ce.png","gl/107414_gl.png"],"rt":6140,"trial_type":"image-rank","trial_index":93,"time_elapsed":632266,"internal_node_id":"0.0-93.0"},{"src":["gl/029446_gl.png","ours/029446_ours.png","ce/029446_ce.png"],"rank_data":[2,0,1],"rank_result":["ours/029446_ours.png","ce/029446_ce.png","gl/029446_gl.png"],"rt":7456,"trial_type":"image-rank","trial_index":94,"time_elapsed":639722,"internal_node_id":"0.0-94.0"},{"src":["ours/174558_ours.png","gl/174558_gl.png","ce/174558_ce.png"],"rank_data":[0,1,2],"rank_result":["ours/174558_ours.png","gl/174558_gl.png","ce/174558_ce.png"],"rt":4186,"trial_type":"image-rank","trial_index":95,"time_elapsed":643908,"internal_node_id":"0.0-95.0"},{"src":["ours/029061_ours.png","gl/029061_gl.png","ce/029061_ce.png"],"rank_data":[0,2,1],"rank_result":["ours/029061_ours.png","ce/029061_ce.png","gl/029061_gl.png"],"rt":3691,"trial_type":"image-rank","trial_index":96,"time_elapsed":647600,"internal_node_id":"0.0-96.0"},{"src":["gl/071560_gl.png","ce/071560_ce.png","ours/071560_ours.png"],"rank_data":[1,2,0],"rank_result":["ours/071560_ours.png","gl/071560_gl.png","ce/071560_ce.png"],"rt":5230,"trial_type":"image-rank","trial_index":97,"time_elapsed":652830,"internal_node_id":"0.0-97.0"},{"src":["ce/006639_ce.png","gl/006639_gl.png","ours/006639_ours.png"],"rank_data":[2,1,0],"rank_result":["ours/006639_ours.png","gl/006639_gl.png","ce/006639_ce.png"],"rt":4553,"trial_type":"image-rank","trial_index":98,"time_elapsed":657384,"internal_node_id":"0.0-98.0"},{"src":["ours/044519_ours.png","gl/044519_gl.png","ce/044519_ce.png"],"rank_data":[0,1,2],"rank_result":["ours/044519_ours.png","gl/044519_gl.png","ce/044519_ce.png"],"rt":5405,"trial_type":"image-rank","trial_index":99,"time_elapsed":662790,"internal_node_id":"0.0-99.0"},{"src":["ce/130710_ce.png","gl/130710_gl.png","ours/130710_ours.png"],"rank_data":[2,1,0],"rank_result":["ours/130710_ours.png","gl/130710_gl.png","ce/130710_ce.png"],"rt":10053,"trial_type":"image-rank","trial_index":100,"time_elapsed":672843,"internal_node_id":"0.0-100.0"},{"src":["ce/072806_ce.png","ours/072806_ours.png","gl/072806_gl.png"],"rank_data":[1,0,2],"rank_result":["ours/072806_ours.png","ce/072806_ce.png","gl/072806_gl.png"],"rt":5497,"trial_type":"image-rank","trial_index":101,"time_elapsed":678341,"internal_node_id":"0.0-101.0"},{"src":["ce/023093_ce.png","ours/023093_ours.png","gl/023093_gl.png"],"rank_data":[2,0,1],"rank_result":["ours/023093_ours.png","gl/023093_gl.png","ce/023093_ce.png"],"rt":5674,"trial_type":"image-rank","trial_index":102,"time_elapsed":684016,"internal_node_id":"0.0-102.0"}]