[{"rt":37225,"stimulus":"Welcome to the experiment. Press any key to begin.","key_press":88,"trial_type":"html-keyboard-response","trial_index":0,"time_elapsed":37227,"internal_node_id":"0.0-0.0"},{"rt":17623,"stimulus":"<p>In this experiment, three images of people will appear in the center of the screen.</p><p>Your task is to rank these images based on how <strong>real</strong> you think they are.<p>The ranking level is between 1 to 3, with <strong>1</strong> representing the most realistic one and <strong>3</strong> the least realistic one.</p><p>There are totally 100 groups of images. The time to rank is not limited. </p> <p>When you finish one group, click the <strong>Continue</strong> button to continue to the next one.</p><p>At the end of the experiment, your name and age will be asked and recorded.</p>","key_press":32,"trial_type":"html-keyboard-response","trial_index":1,"time_elapsed":54851,"internal_node_id":"0.0-1.0"},{"rt":null,"stimulus":"<div style=\"font-size:60px;\"></div>","key_press":null,"trial_type":"html-keyboard-response","trial_index":2,"time_elapsed":55451,"internal_node_id":"0.0-2.0"},{"src":["gl/185923_gl.png","ce/185923_ce.png","ours/185923_ours.png"],"rank_data":[2,0,1],"rank_result":["ce/185923_ce.png","ours/185923_ours.png","gl/185923_gl.png"],"rt":15697,"trial_type":"image-rank","trial_index":3,"time_elapsed":71149,"internal_node_id":"0.0-3.0"},{"src":["ce/200381_ce.png","ours/200381_ours.png","gl/200381_gl.png"],"rank_data":[0,2,1],"rank_result":["ce/200381_ce.png","gl/200381_gl.png","ours/200381_ours.png"],"rt":10893,"trial_type":"image-rank","trial_index":4,"time_elapsed":82044,"internal_node_id":"0.0-4.0"},{"src":["ours/012861_ours.png","gl/012861_gl.png","ce/012861_ce.png"],"rank_data":[0,1,2],"rank_result":["ours/012861_ours.png","gl/012861_gl.png","ce/012861_ce.png"],"rt":11208,"trial_type":"image-rank","trial_index":5,"time_elapsed":93252,"internal_node_id":"0.0-5.0"},{"src":["ours/041949_ours.png","ce/041949_ce.png","gl/041949_gl.png"],"rank_data":[0,1,2],"rank_result":["ours/041949_ours.png","ce/041949_ce.png","gl/041949_gl.png"],"rt":13519,"trial_type":"image-rank","trial_index":6,"time_elapsed":106773,"internal_node_id":"0.0-6.0"},{"src":["ours/109711_ours.png","ce/109711_ce.png","gl/109711_gl.png"],"rank_data":[0,1,2],"rank_result":["ours/109711_ours.png","ce/109711_ce.png","gl/109711_gl.png"],"rt":9042,"trial_type":"image-rank","trial_index":7,"time_elapsed":115816,"internal_node_id":"0.0-7.0"},{"src":["ours/093370_ours.png","gl/093370_gl.png","ce/093370_ce.png"],"rank_data":[0,2,1],"rank_result":["ours/093370_ours.png","ce/093370_ce.png","gl/093370_gl.png"],"rt":6393,"trial_type":"image-rank","trial_index":8,"time_elapsed":122210,"internal_node_id":"0.0-8.0"},{"src":["gl/110210_gl.png","ours/110210_ours.png","ce/110210_ce.png"],"rank_data":[1,2,0],"rank_result":["ce/110210_ce.png","gl/110210_gl.png","ours/110210_ours.png"],"rt":6206,"trial_type":"image-rank","trial_index":9,"time_elapsed":128417,"internal_node_id":"0.0-9.0"},{"src":["ce/117236_ce.png","ours/117236_ours.png","gl/117236_gl.png"],"rank_data":[0,1,2],"rank_result":["ce/117236_ce.png","ours/117236_ours.png","gl/117236_gl.png"],"rt":7006,"trial_type":"image-rank","trial_index":10,"time_elapsed":135424,"internal_node_id":"0.0-10.0"},{"src":["gl/154611_gl.png","ours/154611_ours.png","ce/154611_ce.png"],"rank_data":[2,1,0],"rank_result":["ce/154611_ce.png","ours/154611_ours.png","gl/154611_gl.png"],"rt":11914,"trial_type":"image-rank","trial_index":11,"time_elapsed":147338,"internal_node_id":"0.0-11.0"},{"src":["ours/176202_ours.png","gl/176202_gl.png","ce/176202_ce.png"],"rank_data":[2,1,0],"rank_result":["ce/176202_ce.png","gl/176202_gl.png","ours/176202_ours.png"],"rt":21626,"trial_type":"image-rank","trial_index":12,"time_elapsed":168965,"internal_node_id":"0.0-12.0"},{"src":["gl/148931_gl.png","ours/148931_ours.png","ce/148931_ce.png"],"rank_data":[2,1,0],"rank_result":["ce/148931_ce.png","ours/148931_ours.png","gl/148931_gl.png"],"rt":8120,"trial_type":"image-rank","trial_index":13,"time_elapsed":177085,"internal_node_id":"0.0-13.0"},{"src":["ours/060346_ours.png","ce/060346_ce.png","gl/060346_gl.png"],"rank_data":[0,1,2],"rank_result":["ours/060346_ours.png","ce/060346_ce.png","gl/060346_gl.png"],"rt":6742,"trial_type":"image-rank","trial_index":14,"time_elapsed":183829,"internal_node_id":"0.0-14.0"},{"src":["ce/163024_ce.png","gl/163024_gl.png","ours/163024_ours.png"],"rank_data":[2,1,0],"rank_result":["ours/163024_ours.png","gl/163024_gl.png","ce/163024_ce.png"],"rt":7432,"trial_type":"image-rank","trial_index":15,"time_elapsed":191261,"internal_node_id":"0.0-15.0"},{"src":["ours/050291_ours.png","gl/050291_gl.png","ce/050291_ce.png"],"rank_data":[0,2,1],"rank_result":["ours/050291_ours.png","ce/050291_ce.png","gl/050291_gl.png"],"rt":8902,"trial_type":"image-rank","trial_index":16,"time_elapsed":200165,"internal_node_id":"0.0-16.0"},{"src":["gl/146932_gl.png","ce/146932_ce.png","ours/146932_ours.png"],"rank_data":[2,1,0],"rank_result":["ours/146932_ours.png","ce/146932_ce.png","gl/146932_gl.png"],"rt":7872,"trial_type":"image-rank","trial_index":17,"time_elapsed":208038,"internal_node_id":"0.0-17.0"},{"src":["ce/144126_ce.png","ours/144126_ours.png","gl/144126_gl.png"],"rank_data":[2,0,1],"rank_result":["ours/144126_ours.png","gl/144126_gl.png","ce/144126_ce.png"],"rt":5791,"trial_type":"image-rank","trial_index":18,"time_elapsed":213829,"internal_node_id":"0.0-18.0"},{"src":["ours/108712_ours.png","ce/108712_ce.png","gl/108712_gl.png"],"rank_data":[0,1,2],"rank_result":["ours/108712_ours.png","ce/108712_ce.png","gl/108712_gl.png"],"rt":5417,"trial_type":"image-rank","trial_index":19,"time_elapsed":219246,"internal_node_id":"0.0-19.0"},{"src":["ce/041139_ce.png","gl/041139_gl.png","ours/041139_ours.png"],"rank_data":[2,1,0],"rank_result":["ours/041139_ours.png","gl/041139_gl.png","ce/041139_ce.png"],"rt":9451,"trial_type":"image-rank","trial_index":20,"time_elapsed":228697,"internal_node_id":"0.0-20.0"},{"src":["ours/072166_ours.png","gl/072166_gl.png","ce/072166_ce.png"],"rank_data":[2,0,1],"rank_result":["gl/072166_gl.png","ce/072166_ce.png","ours/072166_ours.png"],"rt":11196,"trial_type":"image-rank","trial_index":21,"time_elapsed":239893,"internal_node_id":"0.0-21.0"},{"src":["ce/172235_ce.png","gl/172235_gl.png","ours/172235_ours.png"],"rank_data":[1,0,2],"rank_result":["gl/172235_gl.png","ce/172235_ce.png","ours/172235_ours.png"],"rt":6996,"trial_type":"image-rank","trial_index":22,"time_elapsed":246890,"internal_node_id":"0.0-22.0"},{"src":["ce/138925_ce.png","gl/138925_gl.png","ours/138925_ours.png"],"rank_data":[0,1,2],"rank_result":["ce/138925_ce.png","gl/138925_gl.png","ours/138925_ours.png"],"rt":5686,"trial_type":"image-rank","trial_index":23,"time_elapsed":252577,"internal_node_id":"0.0-23.0"},{"src":["ce/077739_ce.png","gl/077739_gl.png","ours/077739_ours.png"],"rank_data":[1,2,0],"rank_result":["ours/077739_ours.png","ce/077739_ce.png","gl/077739_gl.png"],"rt":5631,"trial_type":"image-rank","trial_index":24,"time_elapsed":258208,"internal_node_id":"0.0-24.0"},{"src":["ce/016757_ce.png","ours/016757_ours.png","gl/016757_gl.png"],"rank_data":[1,0,2],"rank_result":["ours/016757_ours.png","ce/016757_ce.png","gl/016757_gl.png"],"rt":8137,"trial_type":"image-rank","trial_index":25,"time_elapsed":266345,"internal_node_id":"0.0-25.0"},{"src":["ours/014124_ours.png","gl/014124_gl.png","ce/014124_ce.png"],"rank_data":[0,2,1],"rank_result":["ours/014124_ours.png","ce/014124_ce.png","gl/014124_gl.png"],"rt":6383,"trial_type":"image-rank","trial_index":26,"time_elapsed":272729,"internal_node_id":"0.0-26.0"},{"src":["gl/168227_gl.png","ce/168227_ce.png","ours/168227_ours.png"],"rank_data":[0,2,1],"rank_result":["gl/168227_gl.png","ours/168227_ours.png","ce/168227_ce.png"],"rt":5464,"trial_type":"image-rank","trial_index":27,"time_elapsed":278193,"internal_node_id":"0.0-27.0"},{"src":["ce/059271_ce.png","gl/059271_gl.png","ours/059271_ours.png"],"rank_data":[0,2,1],"rank_result":["ce/059271_ce.png","ours/059271_ours.png","gl/059271_gl.png"],"rt":7216,"trial_type":"image-rank","trial_index":28,"time_elapsed":285409,"internal_node_id":"0.0-28.0"},{"src":["gl/153489_gl.png","ce/153489_ce.png","ours/153489_ours.png"],"rank_data":[2,1,0],"rank_result":["ours/153489_ours.png","ce/153489_ce.png","gl/153489_gl.png"],"rt":7956,"trial_type":"image-rank","trial_index":29,"time_elapsed":293366,"internal_node_id":"0.0-29.0"},{"src":["ce/148991_ce.png","ours/148991_ours.png","gl/148991_gl.png"],"rank_data":[2,0,1],"rank_result":["ours/148991_ours.png","gl/148991_gl.png","ce/148991_ce.png"],"rt":5456,"trial_type":"image-rank","trial_index":30,"time_elapsed":298822,"internal_node_id":"0.0-30.0"},{"src":["ours/118603_ours.png","gl/118603_gl.png","ce/118603_ce.png"],"rank_data":[0,2,1],"rank_result":["ours/118603_ours.png","ce/118603_ce.png","gl/118603_gl.png"],"rt":6151,"trial_type":"image-rank","trial_index":31,"time_elapsed":304974,"internal_node_id":"0.0-31.0"},{"src":["ours/076546_ours.png","gl/076546_gl.png","ce/076546_ce.png"],"rank_data":[0,2,1],"rank_result":["ours/076546_ours.png","ce/076546_ce.png","gl/076546_gl.png"],"rt":3983,"trial_type":"image-rank","trial_index":32,"time_elapsed":308957,"internal_node_id":"0.0-32.0"},{"src":["gl/125702_gl.png","ce/125702_ce.png","ours/125702_ours.png"],"rank_data":[2,1,0],"rank_result":["ours/125702_ours.png","ce/125702_ce.png","gl/125702_gl.png"],"rt":8967,"trial_type":"image-rank","trial_index":33,"time_elapsed":317926,"internal_node_id":"0.0-33.0"},{"src":["ce/098668_ce.png","ours/098668_ours.png","gl/098668_gl.png"],"rank_data":[1,0,2],"rank_result":["ours/098668_ours.png","ce/098668_ce.png","gl/098668_gl.png"],"rt":50954,"trial_type":"image-rank","trial_index":34,"time_elapsed":368881,"internal_node_id":"0.0-34.0"},{"src":["ours/084581_ours.png","gl/084581_gl.png","ce/084581_ce.png"],"rank_data":[0,1,2],"rank_result":["ours/084581_ours.png","gl/084581_gl.png","ce/084581_ce.png"],"rt":3991,"trial_type":"image-rank","trial_index":35,"time_elapsed":372873,"internal_node_id":"0.0-35.0"},{"src":["ce/005192_ce.png","ours/005192_ours.png","gl/005192_gl.png"],"rank_data":[2,0,1],"rank_result":["ours/005192_ours.png","gl/005192_gl.png","ce/005192_ce.png"],"rt":7927,"trial_type":"image-rank","trial_index":36,"time_elapsed":380800,"internal_node_id":"0.0-36.0"},{"src":["ours/004609_ours.png","gl/004609_gl.png","ce/004609_ce.png"],"rank_data":[2,1,0],"rank_result":["ce/004609_ce.png","gl/004609_gl.png","ours/004609_ours.png"],"rt":8097,"trial_type":"image-rank","trial_index":37,"time_elapsed":388897,"internal_node_id":"0.0-37.0"},{"src":["ours/064771_ours.png","ce/064771_ce.png","gl/064771_gl.png"],"rank_data":[0,2,1],"rank_result":["ours/064771_ours.png","gl/064771_gl.png","ce/064771_ce.png"],"rt":4975,"trial_type":"image-rank","trial_index":38,"time_elapsed":393872,"internal_node_id":"0.0-38.0"},{"src":["ce/050940_ce.png","ours/050940_ours.png","gl/050940_gl.png"],"rank_data":[2,0,1],"rank_result":["ours/050940_ours.png","gl/050940_gl.png","ce/050940_ce.png"],"rt":5600,"trial_type":"image-rank","trial_index":39,"time_elapsed":399473,"internal_node_id":"0.0-39.0"},{"src":["ce/173121_ce.png","gl/173121_gl.png","ours/173121_ours.png"],"rank_data":[2,0,1],"rank_result":["gl/173121_gl.png","ours/173121_ours.png","ce/173121_ce.png"],"rt":5432,"trial_type":"image-rank","trial_index":40,"time_elapsed":404905,"internal_node_id":"0.0-40.0"},{"src":["ours/196509_ours.png","ce/196509_ce.png","gl/196509_gl.png"],"rank_data":[0,2,1],"rank_result":["ours/196509_ours.png","gl/196509_gl.png","ce/196509_ce.png"],"rt":5735,"trial_type":"image-rank","trial_index":41,"time_elapsed":410641,"internal_node_id":"0.0-41.0"},{"src":["gl/109355_gl.png","ce/109355_ce.png","ours/109355_ours.png"],"rank_data":[2,1,0],"rank_result":["ours/109355_ours.png","ce/109355_ce.png","gl/109355_gl.png"],"rt":4999,"trial_type":"image-rank","trial_index":42,"time_elapsed":415640,"internal_node_id":"0.0-42.0"},{"src":["gl/110453_gl.png","ours/110453_ours.png","ce/110453_ce.png"],"rank_data":[1,0,2],"rank_result":["ours/110453_ours.png","gl/110453_gl.png","ce/110453_ce.png"],"rt":5953,"trial_type":"image-rank","trial_index":43,"time_elapsed":421593,"internal_node_id":"0.0-43.0"},{"src":["gl/048548_gl.png","ours/048548_ours.png","ce/048548_ce.png"],"rank_data":[2,0,1],"rank_result":["ours/048548_ours.png","ce/048548_ce.png","gl/048548_gl.png"],"rt":4052,"trial_type":"image-rank","trial_index":44,"time_elapsed":425646,"internal_node_id":"0.0-44.0"},{"src":["gl/121120_gl.png","ce/121120_ce.png","ours/121120_ours.png"],"rank_data":[0,1,2],"rank_result":["gl/121120_gl.png","ce/121120_ce.png","ours/121120_ours.png"],"rt":6375,"trial_type":"image-rank","trial_index":45,"time_elapsed":432021,"internal_node_id":"0.0-45.0"},{"src":["ours/073543_ours.png","gl/073543_gl.png","ce/073543_ce.png"],"rank_data":[0,2,1],"rank_result":["ours/073543_ours.png","ce/073543_ce.png","gl/073543_gl.png"],"rt":6137,"trial_type":"image-rank","trial_index":46,"time_elapsed":438159,"internal_node_id":"0.0-46.0"},{"src":["ours/173149_ours.png","ce/173149_ce.png","gl/173149_gl.png"],"rank_data":[0,2,1],"rank_result":["ours/173149_ours.png","gl/173149_gl.png","ce/173149_ce.png"],"rt":5999,"trial_type":"image-rank","trial_index":47,"time_elapsed":444158,"internal_node_id":"0.0-47.0"},{"src":["ours/187565_ours.png","ce/187565_ce.png","gl/187565_gl.png"],"rank_data":[0,2,1],"rank_result":["ours/187565_ours.png","gl/187565_gl.png","ce/187565_ce.png"],"rt":4247,"trial_type":"image-rank","trial_index":48,"time_elapsed":448405,"internal_node_id":"0.0-48.0"},{"src":["ce/157801_ce.png","gl/157801_gl.png","ours/157801_ours.png"],"rank_data":[1,2,0],"rank_result":["ours/157801_ours.png","ce/157801_ce.png","gl/157801_gl.png"],"rt":7016,"trial_type":"image-rank","trial_index":49,"time_elapsed":455422,"internal_node_id":"0.0-49.0"},{"src":["ce/101844_ce.png","gl/101844_gl.png","ours/101844_ours.png"],"rank_data":[1,2,0],"rank_result":["ours/101844_ours.png","ce/101844_ce.png","gl/101844_gl.png"],"rt":6574,"trial_type":"image-rank","trial_index":50,"time_elapsed":461998,"internal_node_id":"0.0-50.0"},{"src":["gl/082994_gl.png","ce/082994_ce.png","ours/082994_ours.png"],"rank_data":[0,2,1],"rank_result":["gl/082994_gl.png","ours/082994_ours.png","ce/082994_ce.png"],"rt":6247,"trial_type":"image-rank","trial_index":51,"time_elapsed":468246,"internal_node_id":"0.0-51.0"},{"src":["ce/055905_ce.png","gl/055905_gl.png","ours/055905_ours.png"],"rank_data":[2,0,1],"rank_result":["gl/055905_gl.png","ours/055905_ours.png","ce/055905_ce.png"],"rt":6991,"trial_type":"image-rank","trial_index":52,"time_elapsed":475238,"internal_node_id":"0.0-52.0"},{"src":["ours/047601_ours.png","gl/047601_gl.png","ce/047601_ce.png"],"rank_data":[0,1,2],"rank_result":["ours/047601_ours.png","gl/047601_gl.png","ce/047601_ce.png"],"rt":3879,"trial_type":"image-rank","trial_index":53,"time_elapsed":479118,"internal_node_id":"0.0-53.0"},{"src":["ours/052599_ours.png","gl/052599_gl.png","ce/052599_ce.png"],"rank_data":[0,2,1],"rank_result":["ours/052599_ours.png","ce/052599_ce.png","gl/052599_gl.png"],"rt":3935,"trial_type":"image-rank","trial_index":54,"time_elapsed":483053,"internal_node_id":"0.0-54.0"},{"src":["ce/028764_ce.png","gl/028764_gl.png","ours/028764_ours.png"],"rank_data":[2,1,0],"rank_result":["ours/028764_ours.png","gl/028764_gl.png","ce/028764_ce.png"],"rt":8110,"trial_type":"image-rank","trial_index":55,"time_elapsed":491163,"internal_node_id":"0.0-55.0"},{"src":["gl/013939_gl.png","ours/013939_ours.png","ce/013939_ce.png"],"rank_data":[1,0,2],"rank_result":["ours/013939_ours.png","gl/013939_gl.png","ce/013939_ce.png"],"rt":19775,"trial_type":"image-rank","trial_index":56,"time_elapsed":510939,"internal_node_id":"0.0-56.0"},{"src":["gl/005389_gl.png","ce/005389_ce.png","ours/005389_ours.png"],"rank_data":[2,0,1],"rank_result":["ce/005389_ce.png","ours/005389_ours.png","gl/005389_gl.png"],"rt":4432,"trial_type":"image-rank","trial_index":57,"time_elapsed":515372,"internal_node_id":"0.0-57.0"},{"src":["gl/101222_gl.png","ce/101222_ce.png","ours/101222_ours.png"],"rank_data":[2,0,1],"rank_result":["ce/101222_ce.png","ours/101222_ours.png","gl/101222_gl.png"],"rt":4022,"trial_type":"image-rank","trial_index":58,"time_elapsed":519395,"internal_node_id":"0.0-58.0"},{"src":["ours/059958_ours.png","ce/059958_ce.png","gl/059958_gl.png"],"rank_data":[1,0,2],"rank_result":["ce/059958_ce.png","ours/059958_ours.png","gl/059958_gl.png"],"rt":4639,"trial_type":"image-rank","trial_index":59,"time_elapsed":524035,"internal_node_id":"0.0-59.0"},{"src":["ce/012753_ce.png","gl/012753_gl.png","ours/012753_ours.png"],"rank_data":[2,0,1],"rank_result":["gl/012753_gl.png","ours/012753_ours.png","ce/012753_ce.png"],"rt":7296,"trial_type":"image-rank","trial_index":60,"time_elapsed":531332,"internal_node_id":"0.0-60.0"},{"src":["gl/136900_gl.png","ce/136900_ce.png","ours/136900_ours.png"],"rank_data":[2,1,0],"rank_result":["ours/136900_ours.png","ce/136900_ce.png","gl/136900_gl.png"],"rt":6030,"trial_type":"image-rank","trial_index":61,"time_elapsed":537362,"internal_node_id":"0.0-61.0"},{"src":["ce/132588_ce.png","gl/132588_gl.png","ours/132588_ours.png"],"rank_data":[0,2,1],"rank_result":["ce/132588_ce.png","ours/132588_ours.png","gl/132588_gl.png"],"rt":4545,"trial_type":"image-rank","trial_index":62,"time_elapsed":541907,"internal_node_id":"0.0-62.0"},{"src":["gl/160867_gl.png","ours/160867_ours.png","ce/160867_ce.png"],"rank_data":[0,1,2],"rank_result":["gl/160867_gl.png","ours/160867_ours.png","ce/160867_ce.png"],"rt":4083,"trial_type":"image-rank","trial_index":63,"time_elapsed":545991,"internal_node_id":"0.0-63.0"},{"src":["gl/002558_gl.png","ce/002558_ce.png","ours/002558_ours.png"],"rank_data":[2,1,0],"rank_result":["ours/002558_ours.png","ce/002558_ce.png","gl/002558_gl.png"],"rt":5623,"trial_type":"image-rank","trial_index":64,"time_elapsed":551614,"internal_node_id":"0.0-64.0"},{"src":["ce/022904_ce.png","gl/022904_gl.png","ours/022904_ours.png"],"rank_data":[1,2,0],"rank_result":["ours/022904_ours.png","ce/022904_ce.png","gl/022904_gl.png"],"rt":4176,"trial_type":"image-rank","trial_index":65,"time_elapsed":555790,"internal_node_id":"0.0-65.0"},{"src":["ours/002486_ours.png","ce/002486_ce.png","gl/002486_gl.png"],"rank_data":[0,2,1],"rank_result":["ours/002486_ours.png","gl/002486_gl.png","ce/002486_ce.png"],"rt":4425,"trial_type":"image-rank","trial_index":66,"time_elapsed":560215,"internal_node_id":"0.0-66.0"},{"src":["ours/043147_ours.png","gl/043147_gl.png","ce/043147_ce.png"],"rank_data":[0,1,2],"rank_result":["ours/043147_ours.png","gl/043147_gl.png","ce/043147_ce.png"],"rt":3935,"trial_type":"image-rank","trial_index":67,"time_elapsed":564151,"internal_node_id":"0.0-67.0"},{"src":["ours/195630_ours.png","gl/195630_gl.png","ce/195630_ce.png"],"rank_data":[0,1,2],"rank_result":["ours/195630_ours.png","gl/195630_gl.png","ce/195630_ce.png"],"rt":4951,"trial_type":"image-rank","trial_index":68,"time_elapsed":569102,"internal_node_id":"0.0-68.0"},{"src":["gl/048358_gl.png","ours/048358_ours.png","ce/048358_ce.png"],"rank_data":[2,0,1],"rank_result":["ours/048358_ours.png","ce/048358_ce.png","gl/048358_gl.png"],"rt":5893,"trial_type":"image-rank","trial_index":69,"time_elapsed":574999,"internal_node_id":"0.0-69.0"},{"src":["ours/145651_ours.png","ce/145651_ce.png","gl/145651_gl.png"],"rank_data":[0,2,1],"rank_result":["ours/145651_ours.png","gl/145651_gl.png","ce/145651_ce.png"],"rt":5247,"trial_type":"image-rank","trial_index":70,"time_elapsed":580247,"internal_node_id":"0.0-70.0"},{"src":["ours/121271_ours.png","gl/121271_gl.png","ce/121271_ce.png"],"rank_data":[0,2,1],"rank_result":["ours/121271_ours.png","ce/121271_ce.png","gl/121271_gl.png"],"rt":4016,"trial_type":"image-rank","trial_index":71,"time_elapsed":584263,"internal_node_id":"0.0-71.0"},{"src":["ours/050345_ours.png","ce/050345_ce.png","gl/050345_gl.png"],"rank_data":[0,2,1],"rank_result":["ours/050345_ours.png","gl/050345_gl.png","ce/050345_ce.png"],"rt":4927,"trial_type":"image-rank","trial_index":72,"time_elapsed":589191,"internal_node_id":"0.0-72.0"},{"src":["gl/110334_gl.png","ours/110334_ours.png","ce/110334_ce.png"],"rank_data":[0,1,2],"rank_result":["gl/110334_gl.png","ours/110334_ours.png","ce/110334_ce.png"],"rt":5080,"trial_type":"image-rank","trial_index":73,"time_elapsed":594271,"internal_node_id":"0.0-73.0"},{"src":["ce/168536_ce.png","ours/168536_ours.png","gl/168536_gl.png"],"rank_data":[2,0,1],"rank_result":["ours/168536_ours.png","gl/168536_gl.png","ce/168536_ce.png"],"rt":4072,"trial_type":"image-rank","trial_index":74,"time_elapsed":598343,"internal_node_id":"0.0-74.0"},{"src":["ours/153591_ours.png","ce/153591_ce.png","gl/153591_gl.png"],"rank_data":[1,2,0],"rank_result":["gl/153591_gl.png","ours/153591_ours.png","ce/153591_ce.png"],"rt":5791,"trial_type":"image-rank","trial_index":75,"time_elapsed":604134,"internal_node_id":"0.0-75.0"},{"src":["ce/124616_ce.png","gl/124616_gl.png","ours/124616_ours.png"],"rank_data":[1,2,0],"rank_result":["ours/124616_ours.png","ce/124616_ce.png","gl/124616_gl.png"],"rt":5206,"trial_type":"image-rank","trial_index":76,"time_elapsed":609340,"internal_node_id":"0.0-76.0"},{"src":["ce/006912_ce.png","ours/006912_ours.png","gl/006912_gl.png"],"rank_data":[2,0,1],"rank_result":["ours/006912_ours.png","gl/006912_gl.png","ce/006912_ce.png"],"rt":5071,"trial_type":"image-rank","trial_index":77,"time_elapsed":614412,"internal_node_id":"0.0-77.0"},{"src":["ce/008011_ce.png","ours/008011_ours.png","gl/008011_gl.png"],"rank_data":[2,1,0],"rank_result":["gl/008011_gl.png","ours/008011_ours.png","ce/008011_ce.png"],"rt":5551,"trial_type":"image-rank","trial_index":78,"time_elapsed":619963,"internal_node_id":"0.0-78.0"},{"src":["gl/120119_gl.png","ce/120119_ce.png","ours/120119_ours.png"],"rank_data":[2,1,0],"rank_result":["ours/120119_ours.png","ce/120119_ce.png","gl/120119_gl.png"],"rt":5655,"trial_type":"image-rank","trial_index":79,"time_elapsed":625619,"internal_node_id":"0.0-79.0"},{"src":["ours/180329_ours.png","gl/180329_gl.png","ce/180329_ce.png"],"rank_data":[1,2,0],"rank_result":["ce/180329_ce.png","ours/180329_ours.png","gl/180329_gl.png"],"rt":6561,"trial_type":"image-rank","trial_index":80,"time_elapsed":632180,"internal_node_id":"0.0-80.0"},{"src":["ce/122003_ce.png","gl/122003_gl.png","ours/122003_ours.png"],"rank_data":[1,2,0],"rank_result":["ours/122003_ours.png","ce/122003_ce.png","gl/122003_gl.png"],"rt":5958,"trial_type":"image-rank","trial_index":81,"time_elapsed":638139,"internal_node_id":"0.0-81.0"},{"src":["ours/044775_ours.png","ce/044775_ce.png","gl/044775_gl.png"],"rank_data":[0,1,2],"rank_result":["ours/044775_ours.png","ce/044775_ce.png","gl/044775_gl.png"],"rt":57067,"trial_type":"image-rank","trial_index":82,"time_elapsed":695206,"internal_node_id":"0.0-82.0"},{"src":["ours/178838_ours.png","ce/178838_ce.png","gl/178838_gl.png"],"rank_data":[0,2,1],"rank_result":["ours/178838_ours.png","gl/178838_gl.png","ce/178838_ce.png"],"rt":6200,"trial_type":"image-rank","trial_index":83,"time_elapsed":701407,"internal_node_id":"0.0-83.0"},{"src":["gl/167589_gl.png","ce/167589_ce.png","ours/167589_ours.png"],"rank_data":[1,2,0],"rank_result":["ours/167589_ours.png","gl/167589_gl.png","ce/167589_ce.png"],"rt":4919,"trial_type":"image-rank","trial_index":84,"time_elapsed":706326,"internal_node_id":"0.0-84.0"},{"src":["gl/036841_gl.png","ce/036841_ce.png","ours/036841_ours.png"],"rank_data":[1,2,0],"rank_result":["ours/036841_ours.png","gl/036841_gl.png","ce/036841_ce.png"],"rt":4336,"trial_type":"image-rank","trial_index":85,"time_elapsed":710663,"internal_node_id":"0.0-85.0"},{"src":["ce/196062_ce.png","ours/196062_ours.png","gl/196062_gl.png"],"rank_data":[1,0,2],"rank_result":["ours/196062_ours.png","ce/196062_ce.png","gl/196062_gl.png"],"rt":4815,"trial_type":"image-rank","trial_index":86,"time_elapsed":715479,"internal_node_id":"0.0-86.0"},{"src":["ours/136656_ours.png","gl/136656_gl.png","ce/136656_ce.png"],"rank_data":[1,0,2],"rank_result":["gl/136656_gl.png","ours/136656_ours.png","ce/136656_ce.png"],"rt":8359,"trial_type":"image-rank","trial_index":87,"time_elapsed":723838,"internal_node_id":"0.0-87.0"},{"src":["ce/085687_ce.png","ours/085687_ours.png","gl/085687_gl.png"],"rank_data":[0,1,2],"rank_result":["ce/085687_ce.png","ours/085687_ours.png","gl/085687_gl.png"],"rt":5711,"trial_type":"image-rank","trial_index":88,"time_elapsed":729550,"internal_node_id":"0.0-88.0"},{"src":["ours/042994_ours.png","gl/042994_gl.png","ce/042994_ce.png"],"rank_data":[0,1,2],"rank_result":["ours/042994_ours.png","gl/042994_gl.png","ce/042994_ce.png"],"rt":4087,"trial_type":"image-rank","trial_index":89,"time_elapsed":733639,"internal_node_id":"0.0-89.0"},{"src":["ce/157423_ce.png","gl/157423_gl.png","ours/157423_ours.png"],"rank_data":[2,1,0],"rank_result":["ours/157423_ours.png","gl/157423_gl.png","ce/157423_ce.png"],"rt":5439,"trial_type":"image-rank","trial_index":90,"time_elapsed":739079,"internal_node_id":"0.0-90.0"},{"src":["ours/187257_ours.png","gl/187257_gl.png","ce/187257_ce.png"],"rank_data":[0,2,1],"rank_result":["ours/187257_ours.png","ce/187257_ce.png","gl/187257_gl.png"],"rt":4120,"trial_type":"image-rank","trial_index":91,"time_elapsed":743200,"internal_node_id":"0.0-91.0"},{"src":["ce/147157_ce.png","gl/147157_gl.png","ours/147157_ours.png"],"rank_data":[0,2,1],"rank_result":["ce/147157_ce.png","ours/147157_ours.png","gl/147157_gl.png"],"rt":11666,"trial_type":"image-rank","trial_index":92,"time_elapsed":754867,"internal_node_id":"0.0-92.0"},{"src":["ce/016692_ce.png","ours/016692_ours.png","gl/016692_gl.png"],"rank_data":[2,0,1],"rank_result":["ours/016692_ours.png","gl/016692_gl.png","ce/016692_ce.png"],"rt":4431,"trial_type":"image-rank","trial_index":93,"time_elapsed":759298,"internal_node_id":"0.0-93.0"},{"src":["gl/003153_gl.png","ce/003153_ce.png","ours/003153_ours.png"],"rank_data":[0,2,1],"rank_result":["gl/003153_gl.png","ours/003153_ours.png","ce/003153_ce.png"],"rt":4615,"trial_type":"image-rank","trial_index":94,"time_elapsed":763914,"internal_node_id":"0.0-94.0"},{"src":["ours/054996_ours.png","ce/054996_ce.png","gl/054996_gl.png"],"rank_data":[0,1,2],"rank_result":["ours/054996_ours.png","ce/054996_ce.png","gl/054996_gl.png"],"rt":5704,"trial_type":"image-rank","trial_index":95,"time_elapsed":769619,"internal_node_id":"0.0-95.0"},{"src":["ours/116213_ours.png","gl/116213_gl.png","ce/116213_ce.png"],"rank_data":[0,1,2],"rank_result":["ours/116213_ours.png","gl/116213_gl.png","ce/116213_ce.png"],"rt":5111,"trial_type":"image-rank","trial_index":96,"time_elapsed":774731,"internal_node_id":"0.0-96.0"},{"src":["ce/089891_ce.png","gl/089891_gl.png","ours/089891_ours.png"],"rank_data":[1,2,0],"rank_result":["ours/089891_ours.png","ce/089891_ce.png","gl/089891_gl.png"],"rt":4479,"trial_type":"image-rank","trial_index":97,"time_elapsed":779210,"internal_node_id":"0.0-97.0"},{"src":["ce/108144_ce.png","ours/108144_ours.png","gl/108144_gl.png"],"rank_data":[2,0,1],"rank_result":["ours/108144_ours.png","gl/108144_gl.png","ce/108144_ce.png"],"rt":4153,"trial_type":"image-rank","trial_index":98,"time_elapsed":783363,"internal_node_id":"0.0-98.0"},{"src":["ce/193728_ce.png","ours/193728_ours.png","gl/193728_gl.png"],"rank_data":[1,0,2],"rank_result":["ours/193728_ours.png","ce/193728_ce.png","gl/193728_gl.png"],"rt":4735,"trial_type":"image-rank","trial_index":99,"time_elapsed":788099,"internal_node_id":"0.0-99.0"},{"src":["ours/022920_ours.png","gl/022920_gl.png","ce/022920_ce.png"],"rank_data":[0,1,2],"rank_result":["ours/022920_ours.png","gl/022920_gl.png","ce/022920_ce.png"],"rt":5775,"trial_type":"image-rank","trial_index":100,"time_elapsed":793875,"internal_node_id":"0.0-100.0"},{"src":["ours/022589_ours.png","ce/022589_ce.png","gl/022589_gl.png"],"rank_data":[0,2,1],"rank_result":["ours/022589_ours.png","gl/022589_gl.png","ce/022589_ce.png"],"rt":5239,"trial_type":"image-rank","trial_index":101,"time_elapsed":799114,"internal_node_id":"0.0-101.0"},{"src":["ours/093360_ours.png","gl/093360_gl.png","ce/093360_ce.png"],"rank_data":[1,0,2],"rank_result":["gl/093360_gl.png","ours/093360_ours.png","ce/093360_ce.png"],"rt":4553,"trial_type":"image-rank","trial_index":102,"time_elapsed":803667,"internal_node_id":"0.0-102.0"},{"rt":5502,"responses":"{\"Q0\":\"Ruonan Yang\"}","trial_type":"survey-text","trial_index":103,"time_elapsed":809171,"internal_node_id":"0.0-103.0"},{"rt":2804,"responses":"{\"Q0\":\"26\"}","trial_type":"survey-text","trial_index":104,"time_elapsed":811975,"internal_node_id":"0.0-104.0"},{"rt":3007,"stimulus":"<div style=\"font-size:15px;\">You have reached the end of the experiment! Press any key to finish.</div>","key_press":32,"trial_type":"html-keyboard-response","trial_index":105,"time_elapsed":814983,"internal_node_id":"0.0-105.0"}]