[{"rt":5031851,"stimulus":"Welcome to the experiment. Press any key to begin.","key_press":13,"trial_type":"html-keyboard-response","trial_index":0,"time_elapsed":5031851,"internal_node_id":"0.0-0.0"},{"rt":254,"stimulus":"<p>In this experiment, three images of people will appear in the center of the screen.</p><p>Your task is to rank these images based on how <strong>real</strong> you think they are.<p>The ranking level is between 1 to 3, with <strong>1</strong> representing the most real one and <strong>3</strong> the fakest one.</p><p>The time to rank is not limited. When you finish ranking, click the <strong>Continue</strong> button to continue.</p>","key_press":13,"trial_type":"html-keyboard-response","trial_index":1,"time_elapsed":5032106,"internal_node_id":"0.0-1.0"},{"rt":null,"stimulus":"<div style=\"font-size:60px;\"></div>","key_press":null,"label":"fixation","trial_type":"html-keyboard-response","trial_index":2,"time_elapsed":5033109,"internal_node_id":"0.0-2.0"},{"src":["ours/058718_ours.png","ce/058718_ce.png","gl/058718_gl.png"],"rank_data":[0,1,2],"rank_result":["ours/058718_ours.png","ce/058718_ce.png","gl/058718_gl.png"],"rt":70077,"trial_type":"image-rank","trial_index":3,"time_elapsed":5103186,"internal_node_id":"0.0-3.0"},{"src":["gl/069854_gl.png","ours/069854_ours.png","ce/069854_ce.png"],"rank_data":[2,0,1],"rank_result":["ours/069854_ours.png","ce/069854_ce.png","gl/069854_gl.png"],"rt":8192,"trial_type":"image-rank","trial_index":4,"time_elapsed":5111378,"internal_node_id":"0.0-4.0"},{"src":["gl/196455_gl.png","ours/196455_ours.png","ce/196455_ce.png"],"rank_data":[1,0,2],"rank_result":["ours/196455_ours.png","gl/196455_gl.png","ce/196455_ce.png"],"rt":5952,"trial_type":"image-rank","trial_index":5,"time_elapsed":5117330,"internal_node_id":"0.0-5.0"},{"src":["gl/188921_gl.png","ce/188921_ce.png","ours/188921_ours.png"],"rank_data":[1,2,0],"rank_result":["ours/188921_ours.png","gl/188921_gl.png","ce/188921_ce.png"],"rt":6328,"trial_type":"image-rank","trial_index":6,"time_elapsed":5123658,"internal_node_id":"0.0-6.0"},{"src":["ours/012312_ours.png","ce/012312_ce.png","gl/012312_gl.png"],"rank_data":[0,1,2],"rank_result":["ours/012312_ours.png","ce/012312_ce.png","gl/012312_gl.png"],"rt":4464,"trial_type":"image-rank","trial_index":7,"time_elapsed":5128122,"internal_node_id":"0.0-7.0"},{"src":["gl/168997_gl.png","ce/168997_ce.png","ours/168997_ours.png"],"rank_data":[2,1,0],"rank_result":["ours/168997_ours.png","ce/168997_ce.png","gl/168997_gl.png"],"rt":4376,"trial_type":"image-rank","trial_index":8,"time_elapsed":5132498,"internal_node_id":"0.0-8.0"},{"src":["ce/047691_ce.png","gl/047691_gl.png","ours/047691_ours.png"],"rank_data":[2,1,0],"rank_result":["ours/047691_ours.png","gl/047691_gl.png","ce/047691_ce.png"],"rt":6968,"trial_type":"image-rank","trial_index":9,"time_elapsed":5139466,"internal_node_id":"0.0-9.0"},{"src":["gl/126515_gl.png","ce/126515_ce.png","ours/126515_ours.png"],"rank_data":[1,2,0],"rank_result":["ours/126515_ours.png","gl/126515_gl.png","ce/126515_ce.png"],"rt":8680,"trial_type":"image-rank","trial_index":10,"time_elapsed":5148146,"internal_node_id":"0.0-10.0"},{"src":["ours/173735_ours.png","gl/173735_gl.png","ce/173735_ce.png"],"rank_data":[0,1,2],"rank_result":["ours/173735_ours.png","gl/173735_gl.png","ce/173735_ce.png"],"rt":8352,"trial_type":"image-rank","trial_index":11,"time_elapsed":5156498,"internal_node_id":"0.0-11.0"},{"src":["ours/016929_ours.png","ce/016929_ce.png","gl/016929_gl.png"],"rank_data":[0,2,1],"rank_result":["ours/016929_ours.png","gl/016929_gl.png","ce/016929_ce.png"],"rt":5720,"trial_type":"image-rank","trial_index":12,"time_elapsed":5162218,"internal_node_id":"0.0-12.0"},{"src":["ce/083134_ce.png","gl/083134_gl.png","ours/083134_ours.png"],"rank_data":[1,2,0],"rank_result":["ours/083134_ours.png","ce/083134_ce.png","gl/083134_gl.png"],"rt":7120,"trial_type":"image-rank","trial_index":13,"time_elapsed":5169338,"internal_node_id":"0.0-13.0"},{"src":["ce/086192_ce.png","gl/086192_gl.png","ours/086192_ours.png"],"rank_data":[0,2,1],"rank_result":["ce/086192_ce.png","ours/086192_ours.png","gl/086192_gl.png"],"rt":5592,"trial_type":"image-rank","trial_index":14,"time_elapsed":5174930,"internal_node_id":"0.0-14.0"},{"src":["ce/111754_ce.png","ours/111754_ours.png","gl/111754_gl.png"],"rank_data":[1,0,2],"rank_result":["ours/111754_ours.png","ce/111754_ce.png","gl/111754_gl.png"],"rt":5327,"trial_type":"image-rank","trial_index":15,"time_elapsed":5180258,"internal_node_id":"0.0-15.0"},{"src":["ours/125702_ours.png","ce/125702_ce.png","gl/125702_gl.png"],"rank_data":[0,1,2],"rank_result":["ours/125702_ours.png","ce/125702_ce.png","gl/125702_gl.png"],"rt":6151,"trial_type":"image-rank","trial_index":16,"time_elapsed":5186410,"internal_node_id":"0.0-16.0"},{"src":["gl/085654_gl.png","ours/085654_ours.png","ce/085654_ce.png"],"rank_data":[2,0,1],"rank_result":["ours/085654_ours.png","ce/085654_ce.png","gl/085654_gl.png"],"rt":4071,"trial_type":"image-rank","trial_index":17,"time_elapsed":5190482,"internal_node_id":"0.0-17.0"},{"src":["gl/044363_gl.png","ours/044363_ours.png","ce/044363_ce.png"],"rank_data":[2,0,1],"rank_result":["ours/044363_ours.png","ce/044363_ce.png","gl/044363_gl.png"],"rt":6767,"trial_type":"image-rank","trial_index":18,"time_elapsed":5197251,"internal_node_id":"0.0-18.0"},{"src":["ours/126574_ours.png","ce/126574_ce.png","gl/126574_gl.png"],"rank_data":[0,1,2],"rank_result":["ours/126574_ours.png","ce/126574_ce.png","gl/126574_gl.png"],"rt":9191,"trial_type":"image-rank","trial_index":19,"time_elapsed":5206442,"internal_node_id":"0.0-19.0"},{"src":["ce/133265_ce.png","ours/133265_ours.png","gl/133265_gl.png"],"rank_data":[2,1,0],"rank_result":["gl/133265_gl.png","ours/133265_ours.png","ce/133265_ce.png"],"rt":8151,"trial_type":"image-rank","trial_index":20,"time_elapsed":5214594,"internal_node_id":"0.0-20.0"},{"src":["ce/013607_ce.png","ours/013607_ours.png","gl/013607_gl.png"],"rank_data":[1,0,2],"rank_result":["ours/013607_ours.png","ce/013607_ce.png","gl/013607_gl.png"],"rt":6568,"trial_type":"image-rank","trial_index":21,"time_elapsed":5221163,"internal_node_id":"0.0-21.0"},{"src":["ce/051125_ce.png","ours/051125_ours.png","gl/051125_gl.png"],"rank_data":[1,0,2],"rank_result":["ours/051125_ours.png","ce/051125_ce.png","gl/051125_gl.png"],"rt":4456,"trial_type":"image-rank","trial_index":22,"time_elapsed":5225619,"internal_node_id":"0.0-22.0"},{"src":["gl/164398_gl.png","ours/164398_ours.png","ce/164398_ce.png"],"rank_data":[1,0,2],"rank_result":["ours/164398_ours.png","gl/164398_gl.png","ce/164398_ce.png"],"rt":5600,"trial_type":"image-rank","trial_index":23,"time_elapsed":5231219,"internal_node_id":"0.0-23.0"},{"src":["ce/024808_ce.png","ours/024808_ours.png","gl/024808_gl.png"],"rank_data":[2,0,1],"rank_result":["ours/024808_ours.png","gl/024808_gl.png","ce/024808_ce.png"],"rt":5000,"trial_type":"image-rank","trial_index":24,"time_elapsed":5236219,"internal_node_id":"0.0-24.0"},{"src":["ce/032198_ce.png","gl/032198_gl.png","ours/032198_ours.png"],"rank_data":[1,2,0],"rank_result":["ours/032198_ours.png","ce/032198_ce.png","gl/032198_gl.png"],"rt":14512,"trial_type":"image-rank","trial_index":25,"time_elapsed":5250731,"internal_node_id":"0.0-25.0"},{"src":["ours/026381_ours.png","ce/026381_ce.png","gl/026381_gl.png"],"rank_data":[0,2,1],"rank_result":["ours/026381_ours.png","gl/026381_gl.png","ce/026381_ce.png"],"rt":7992,"trial_type":"image-rank","trial_index":26,"time_elapsed":5258723,"internal_node_id":"0.0-26.0"},{"src":["gl/090013_gl.png","ce/090013_ce.png","ours/090013_ours.png"],"rank_data":[2,1,0],"rank_result":["ours/090013_ours.png","ce/090013_ce.png","gl/090013_gl.png"],"rt":6776,"trial_type":"image-rank","trial_index":27,"time_elapsed":5265499,"internal_node_id":"0.0-27.0"},{"src":["gl/044119_gl.png","ce/044119_ce.png","ours/044119_ours.png"],"rank_data":[1,2,0],"rank_result":["ours/044119_ours.png","gl/044119_gl.png","ce/044119_ce.png"],"rt":4712,"trial_type":"image-rank","trial_index":28,"time_elapsed":5270211,"internal_node_id":"0.0-28.0"},{"src":["ce/089885_ce.png","ours/089885_ours.png","gl/089885_gl.png"],"rank_data":[2,1,0],"rank_result":["gl/089885_gl.png","ours/089885_ours.png","ce/089885_ce.png"],"rt":3560,"trial_type":"image-rank","trial_index":29,"time_elapsed":5273771,"internal_node_id":"0.0-29.0"},{"src":["ce/045820_ce.png","ours/045820_ours.png","gl/045820_gl.png"],"rank_data":[2,0,1],"rank_result":["ours/045820_ours.png","gl/045820_gl.png","ce/045820_ce.png"],"rt":4312,"trial_type":"image-rank","trial_index":30,"time_elapsed":5278083,"internal_node_id":"0.0-30.0"},{"src":["gl/059954_gl.png","ce/059954_ce.png","ours/059954_ours.png"],"rank_data":[2,1,0],"rank_result":["ours/059954_ours.png","ce/059954_ce.png","gl/059954_gl.png"],"rt":5415,"trial_type":"image-rank","trial_index":31,"time_elapsed":5283499,"internal_node_id":"0.0-31.0"},{"src":["ours/084025_ours.png","ce/084025_ce.png","gl/084025_gl.png"],"rank_data":[0,2,1],"rank_result":["ours/084025_ours.png","gl/084025_gl.png","ce/084025_ce.png"],"rt":4511,"trial_type":"image-rank","trial_index":32,"time_elapsed":5288011,"internal_node_id":"0.0-32.0"},{"src":["gl/197607_gl.png","ce/197607_ce.png","ours/197607_ours.png"],"rank_data":[0,2,1],"rank_result":["gl/197607_gl.png","ours/197607_ours.png","ce/197607_ce.png"],"rt":26343,"trial_type":"image-rank","trial_index":33,"time_elapsed":5314355,"internal_node_id":"0.0-33.0"},{"src":["ours/089811_ours.png","gl/089811_gl.png","ce/089811_ce.png"],"rank_data":[0,1,2],"rank_result":["ours/089811_ours.png","gl/089811_gl.png","ce/089811_ce.png"],"rt":6383,"trial_type":"image-rank","trial_index":34,"time_elapsed":5320739,"internal_node_id":"0.0-34.0"},{"src":["ours/089242_ours.png","gl/089242_gl.png","ce/089242_ce.png"],"rank_data":[1,2,0],"rank_result":["ce/089242_ce.png","ours/089242_ours.png","gl/089242_gl.png"],"rt":4191,"trial_type":"image-rank","trial_index":35,"time_elapsed":5324931,"internal_node_id":"0.0-35.0"},{"src":["gl/134202_gl.png","ce/134202_ce.png","ours/134202_ours.png"],"rank_data":[2,1,0],"rank_result":["ours/134202_ours.png","ce/134202_ce.png","gl/134202_gl.png"],"rt":3511,"trial_type":"image-rank","trial_index":36,"time_elapsed":5328443,"internal_node_id":"0.0-36.0"},{"src":["ce/049416_ce.png","ours/049416_ours.png","gl/049416_gl.png"],"rank_data":[2,0,1],"rank_result":["ours/049416_ours.png","gl/049416_gl.png","ce/049416_ce.png"],"rt":6007,"trial_type":"image-rank","trial_index":37,"time_elapsed":5334451,"internal_node_id":"0.0-37.0"},{"src":["gl/077589_gl.png","ours/077589_ours.png","ce/077589_ce.png"],"rank_data":[0,1,2],"rank_result":["gl/077589_gl.png","ours/077589_ours.png","ce/077589_ce.png"],"rt":8311,"trial_type":"image-rank","trial_index":38,"time_elapsed":5342763,"internal_node_id":"0.0-38.0"},{"src":["ce/027808_ce.png","gl/027808_gl.png","ours/027808_ours.png"],"rank_data":[2,1,0],"rank_result":["ours/027808_ours.png","gl/027808_gl.png","ce/027808_ce.png"],"rt":6911,"trial_type":"image-rank","trial_index":39,"time_elapsed":5349675,"internal_node_id":"0.0-39.0"},{"src":["ce/047749_ce.png","gl/047749_gl.png","ours/047749_ours.png"],"rank_data":[1,2,0],"rank_result":["ours/047749_ours.png","ce/047749_ce.png","gl/047749_gl.png"],"rt":6263,"trial_type":"image-rank","trial_index":40,"time_elapsed":5355939,"internal_node_id":"0.0-40.0"},{"src":["gl/147147_gl.png","ce/147147_ce.png","ours/147147_ours.png"],"rank_data":[2,1,0],"rank_result":["ours/147147_ours.png","ce/147147_ce.png","gl/147147_gl.png"],"rt":5407,"trial_type":"image-rank","trial_index":41,"time_elapsed":5361347,"internal_node_id":"0.0-41.0"},{"src":["ce/184844_ce.png","ours/184844_ours.png","gl/184844_gl.png"],"rank_data":[2,0,1],"rank_result":["ours/184844_ours.png","gl/184844_gl.png","ce/184844_ce.png"],"rt":4111,"trial_type":"image-rank","trial_index":42,"time_elapsed":5365459,"internal_node_id":"0.0-42.0"},{"src":["ce/156728_ce.png","ours/156728_ours.png","gl/156728_gl.png"],"rank_data":[0,1,2],"rank_result":["ce/156728_ce.png","ours/156728_ours.png","gl/156728_gl.png"],"rt":9071,"trial_type":"image-rank","trial_index":43,"time_elapsed":5374531,"internal_node_id":"0.0-43.0"},{"src":["ours/099406_ours.png","ce/099406_ce.png","gl/099406_gl.png"],"rank_data":[0,1,2],"rank_result":["ours/099406_ours.png","ce/099406_ce.png","gl/099406_gl.png"],"rt":4535,"trial_type":"image-rank","trial_index":44,"time_elapsed":5379067,"internal_node_id":"0.0-44.0"},{"src":["ours/156440_ours.png","gl/156440_gl.png","ce/156440_ce.png"],"rank_data":[0,2,1],"rank_result":["ours/156440_ours.png","ce/156440_ce.png","gl/156440_gl.png"],"rt":4159,"trial_type":"image-rank","trial_index":45,"time_elapsed":5383227,"internal_node_id":"0.0-45.0"},{"src":["gl/045234_gl.png","ours/045234_ours.png","ce/045234_ce.png"],"rank_data":[2,0,1],"rank_result":["ours/045234_ours.png","ce/045234_ce.png","gl/045234_gl.png"],"rt":7824,"trial_type":"image-rank","trial_index":46,"time_elapsed":5391051,"internal_node_id":"0.0-46.0"},{"src":["gl/082994_gl.png","ours/082994_ours.png","ce/082994_ce.png"],"rank_data":[1,0,2],"rank_result":["ours/082994_ours.png","gl/082994_gl.png","ce/082994_ce.png"],"rt":5184,"trial_type":"image-rank","trial_index":47,"time_elapsed":5396235,"internal_node_id":"0.0-47.0"},{"src":["ours/009728_ours.png","gl/009728_gl.png","ce/009728_ce.png"],"rank_data":[0,1,2],"rank_result":["ours/009728_ours.png","gl/009728_gl.png","ce/009728_ce.png"],"rt":3807,"trial_type":"image-rank","trial_index":48,"time_elapsed":5400043,"internal_node_id":"0.0-48.0"},{"src":["gl/067393_gl.png","ours/067393_ours.png","ce/067393_ce.png"],"rank_data":[1,0,2],"rank_result":["ours/067393_ours.png","gl/067393_gl.png","ce/067393_ce.png"],"rt":5488,"trial_type":"image-rank","trial_index":49,"time_elapsed":5405531,"internal_node_id":"0.0-49.0"},{"src":["ours/020066_ours.png","ce/020066_ce.png","gl/020066_gl.png"],"rank_data":[0,1,2],"rank_result":["ours/020066_ours.png","ce/020066_ce.png","gl/020066_gl.png"],"rt":4696,"trial_type":"image-rank","trial_index":50,"time_elapsed":5410227,"internal_node_id":"0.0-50.0"},{"src":["gl/035505_gl.png","ce/035505_ce.png","ours/035505_ours.png"],"rank_data":[1,2,0],"rank_result":["ours/035505_ours.png","gl/035505_gl.png","ce/035505_ce.png"],"rt":10712,"trial_type":"image-rank","trial_index":51,"time_elapsed":5420939,"internal_node_id":"0.0-51.0"},{"src":["gl/006226_gl.png","ours/006226_ours.png","ce/006226_ce.png"],"rank_data":[2,0,1],"rank_result":["ours/006226_ours.png","ce/006226_ce.png","gl/006226_gl.png"],"rt":4783,"trial_type":"image-rank","trial_index":52,"time_elapsed":5425723,"internal_node_id":"0.0-52.0"},{"src":["ce/057820_ce.png","ours/057820_ours.png","gl/057820_gl.png"],"rank_data":[0,1,2],"rank_result":["ce/057820_ce.png","ours/057820_ours.png","gl/057820_gl.png"],"rt":7559,"trial_type":"image-rank","trial_index":53,"time_elapsed":5433283,"internal_node_id":"0.0-53.0"},{"src":["ours/187643_ours.png","ce/187643_ce.png","gl/187643_gl.png"],"rank_data":[1,2,0],"rank_result":["gl/187643_gl.png","ours/187643_ours.png","ce/187643_ce.png"],"rt":6440,"trial_type":"image-rank","trial_index":54,"time_elapsed":5439723,"internal_node_id":"0.0-54.0"},{"src":["ce/071772_ce.png","ours/071772_ours.png","gl/071772_gl.png"],"rank_data":[2,0,1],"rank_result":["ours/071772_ours.png","gl/071772_gl.png","ce/071772_ce.png"],"rt":5559,"trial_type":"image-rank","trial_index":55,"time_elapsed":5445283,"internal_node_id":"0.0-55.0"},{"src":["ce/030323_ce.png","ours/030323_ours.png","gl/030323_gl.png"],"rank_data":[1,0,2],"rank_result":["ours/030323_ours.png","ce/030323_ce.png","gl/030323_gl.png"],"rt":4408,"trial_type":"image-rank","trial_index":56,"time_elapsed":5449691,"internal_node_id":"0.0-56.0"},{"src":["ce/049438_ce.png","ours/049438_ours.png","gl/049438_gl.png"],"rank_data":[1,0,2],"rank_result":["ours/049438_ours.png","ce/049438_ce.png","gl/049438_gl.png"],"rt":4711,"trial_type":"image-rank","trial_index":57,"time_elapsed":5454403,"internal_node_id":"0.0-57.0"},{"src":["gl/186753_gl.png","ce/186753_ce.png","ours/186753_ours.png"],"rank_data":[1,2,0],"rank_result":["ours/186753_ours.png","gl/186753_gl.png","ce/186753_ce.png"],"rt":4528,"trial_type":"image-rank","trial_index":58,"time_elapsed":5458931,"internal_node_id":"0.0-58.0"},{"src":["gl/179747_gl.png","ours/179747_ours.png","ce/179747_ce.png"],"rank_data":[2,0,1],"rank_result":["ours/179747_ours.png","ce/179747_ce.png","gl/179747_gl.png"],"rt":5488,"trial_type":"image-rank","trial_index":59,"time_elapsed":5464419,"internal_node_id":"0.0-59.0"},{"src":["gl/047178_gl.png","ce/047178_ce.png","ours/047178_ours.png"],"rank_data":[1,2,0],"rank_result":["ours/047178_ours.png","gl/047178_gl.png","ce/047178_ce.png"],"rt":5808,"trial_type":"image-rank","trial_index":60,"time_elapsed":5470227,"internal_node_id":"0.0-60.0"},{"src":["ce/139996_ce.png","gl/139996_gl.png","ours/139996_ours.png"],"rank_data":[1,2,0],"rank_result":["ours/139996_ours.png","ce/139996_ce.png","gl/139996_gl.png"],"rt":4256,"trial_type":"image-rank","trial_index":61,"time_elapsed":5474483,"internal_node_id":"0.0-61.0"},{"src":["ours/116018_ours.png","ce/116018_ce.png","gl/116018_gl.png"],"rank_data":[0,2,1],"rank_result":["ours/116018_ours.png","gl/116018_gl.png","ce/116018_ce.png"],"rt":3920,"trial_type":"image-rank","trial_index":62,"time_elapsed":5478403,"internal_node_id":"0.0-62.0"},{"src":["ce/094564_ce.png","ours/094564_ours.png","gl/094564_gl.png"],"rank_data":[1,0,2],"rank_result":["ours/094564_ours.png","ce/094564_ce.png","gl/094564_gl.png"],"rt":5864,"trial_type":"image-rank","trial_index":63,"time_elapsed":5484267,"internal_node_id":"0.0-63.0"},{"src":["ours/179983_ours.png","gl/179983_gl.png","ce/179983_ce.png"],"rank_data":[0,2,1],"rank_result":["ours/179983_ours.png","ce/179983_ce.png","gl/179983_gl.png"],"rt":4192,"trial_type":"image-rank","trial_index":64,"time_elapsed":5488459,"internal_node_id":"0.0-64.0"},{"src":["gl/187565_gl.png","ours/187565_ours.png","ce/187565_ce.png"],"rank_data":[1,0,2],"rank_result":["ours/187565_ours.png","gl/187565_gl.png","ce/187565_ce.png"],"rt":4568,"trial_type":"image-rank","trial_index":65,"time_elapsed":5493027,"internal_node_id":"0.0-65.0"},{"src":["gl/163618_gl.png","ours/163618_ours.png","ce/163618_ce.png"],"rank_data":[0,1,2],"rank_result":["gl/163618_gl.png","ours/163618_ours.png","ce/163618_ce.png"],"rt":5624,"trial_type":"image-rank","trial_index":66,"time_elapsed":5498651,"internal_node_id":"0.0-66.0"},{"src":["gl/033171_gl.png","ce/033171_ce.png","ours/033171_ours.png"],"rank_data":[1,2,0],"rank_result":["ours/033171_ours.png","gl/033171_gl.png","ce/033171_ce.png"],"rt":5270,"trial_type":"image-rank","trial_index":67,"time_elapsed":5503923,"internal_node_id":"0.0-67.0"},{"src":["ce/057166_ce.png","ours/057166_ours.png","gl/057166_gl.png"],"rank_data":[2,1,0],"rank_result":["gl/057166_gl.png","ours/057166_ours.png","ce/057166_ce.png"],"rt":3775,"trial_type":"image-rank","trial_index":68,"time_elapsed":5507699,"internal_node_id":"0.0-68.0"},{"src":["ce/171213_ce.png","ours/171213_ours.png","gl/171213_gl.png"],"rank_data":[2,0,1],"rank_result":["ours/171213_ours.png","gl/171213_gl.png","ce/171213_ce.png"],"rt":5792,"trial_type":"image-rank","trial_index":69,"time_elapsed":5513491,"internal_node_id":"0.0-69.0"},{"src":["gl/039630_gl.png","ours/039630_ours.png","ce/039630_ce.png"],"rank_data":[1,0,2],"rank_result":["ours/039630_ours.png","gl/039630_gl.png","ce/039630_ce.png"],"rt":3984,"trial_type":"image-rank","trial_index":70,"time_elapsed":5517475,"internal_node_id":"0.0-70.0"},{"src":["ours/115778_ours.png","gl/115778_gl.png","ce/115778_ce.png"],"rank_data":[0,1,2],"rank_result":["ours/115778_ours.png","gl/115778_gl.png","ce/115778_ce.png"],"rt":6320,"trial_type":"image-rank","trial_index":71,"time_elapsed":5523795,"internal_node_id":"0.0-71.0"},{"src":["gl/109762_gl.png","ours/109762_ours.png","ce/109762_ce.png"],"rank_data":[1,0,2],"rank_result":["ours/109762_ours.png","gl/109762_gl.png","ce/109762_ce.png"],"rt":3479,"trial_type":"image-rank","trial_index":72,"time_elapsed":5527275,"internal_node_id":"0.0-72.0"},{"src":["ours/033772_ours.png","ce/033772_ce.png","gl/033772_gl.png"],"rank_data":[0,1,2],"rank_result":["ours/033772_ours.png","ce/033772_ce.png","gl/033772_gl.png"],"rt":4024,"trial_type":"image-rank","trial_index":73,"time_elapsed":5531299,"internal_node_id":"0.0-73.0"},{"src":["gl/024316_gl.png","ours/024316_ours.png","ce/024316_ce.png"],"rank_data":[1,0,2],"rank_result":["ours/024316_ours.png","gl/024316_gl.png","ce/024316_ce.png"],"rt":3751,"trial_type":"image-rank","trial_index":74,"time_elapsed":5535051,"internal_node_id":"0.0-74.0"},{"src":["ours/000494_ours.png","gl/000494_gl.png","ce/000494_ce.png"],"rank_data":[0,2,1],"rank_result":["ours/000494_ours.png","ce/000494_ce.png","gl/000494_gl.png"],"rt":4031,"trial_type":"image-rank","trial_index":75,"time_elapsed":5539083,"internal_node_id":"0.0-75.0"},{"src":["gl/143008_gl.png","ce/143008_ce.png","ours/143008_ours.png"],"rank_data":[1,2,0],"rank_result":["ours/143008_ours.png","gl/143008_gl.png","ce/143008_ce.png"],"rt":3687,"trial_type":"image-rank","trial_index":76,"time_elapsed":5542771,"internal_node_id":"0.0-76.0"},{"src":["ce/163898_ce.png","ours/163898_ours.png","gl/163898_gl.png"],"rank_data":[1,0,2],"rank_result":["ours/163898_ours.png","ce/163898_ce.png","gl/163898_gl.png"],"rt":5758,"trial_type":"image-rank","trial_index":77,"time_elapsed":5548531,"internal_node_id":"0.0-77.0"},{"src":["ce/196208_ce.png","ours/196208_ours.png","gl/196208_gl.png"],"rank_data":[1,0,2],"rank_result":["ours/196208_ours.png","ce/196208_ce.png","gl/196208_gl.png"],"rt":4431,"trial_type":"image-rank","trial_index":78,"time_elapsed":5552963,"internal_node_id":"0.0-78.0"},{"src":["gl/013902_gl.png","ours/013902_ours.png","ce/013902_ce.png"],"rank_data":[2,0,1],"rank_result":["ours/013902_ours.png","ce/013902_ce.png","gl/013902_gl.png"],"rt":4335,"trial_type":"image-rank","trial_index":79,"time_elapsed":5557300,"internal_node_id":"0.0-79.0"},{"src":["ours/087804_ours.png","ce/087804_ce.png","gl/087804_gl.png"],"rank_data":[0,1,2],"rank_result":["ours/087804_ours.png","ce/087804_ce.png","gl/087804_gl.png"],"rt":4855,"trial_type":"image-rank","trial_index":80,"time_elapsed":5562155,"internal_node_id":"0.0-80.0"},{"src":["ours/061343_ours.png","ce/061343_ce.png","gl/061343_gl.png"],"rank_data":[0,1,2],"rank_result":["ours/061343_ours.png","ce/061343_ce.png","gl/061343_gl.png"],"rt":3903,"trial_type":"image-rank","trial_index":81,"time_elapsed":5566060,"internal_node_id":"0.0-81.0"},{"src":["ours/089783_ours.png","gl/089783_gl.png","ce/089783_ce.png"],"rank_data":[0,1,2],"rank_result":["ours/089783_ours.png","gl/089783_gl.png","ce/089783_ce.png"],"rt":6687,"trial_type":"image-rank","trial_index":82,"time_elapsed":5572747,"internal_node_id":"0.0-82.0"},{"src":["gl/090873_gl.png","ours/090873_ours.png","ce/090873_ce.png"],"rank_data":[1,0,2],"rank_result":["ours/090873_ours.png","gl/090873_gl.png","ce/090873_ce.png"],"rt":4711,"trial_type":"image-rank","trial_index":83,"time_elapsed":5577459,"internal_node_id":"0.0-83.0"},{"src":["ce/164876_ce.png","ours/164876_ours.png","gl/164876_gl.png"],"rank_data":[0,1,2],"rank_result":["ce/164876_ce.png","ours/164876_ours.png","gl/164876_gl.png"],"rt":6511,"trial_type":"image-rank","trial_index":84,"time_elapsed":5583971,"internal_node_id":"0.0-84.0"},{"src":["gl/157011_gl.png","ours/157011_ours.png","ce/157011_ce.png"],"rank_data":[2,0,1],"rank_result":["ours/157011_ours.png","ce/157011_ce.png","gl/157011_gl.png"],"rt":3920,"trial_type":"image-rank","trial_index":85,"time_elapsed":5587891,"internal_node_id":"0.0-85.0"},{"src":["gl/137836_gl.png","ours/137836_ours.png","ce/137836_ce.png"],"rank_data":[1,0,2],"rank_result":["ours/137836_ours.png","gl/137836_gl.png","ce/137836_ce.png"],"rt":7088,"trial_type":"image-rank","trial_index":86,"time_elapsed":5594979,"internal_node_id":"0.0-86.0"},{"src":["gl/116900_gl.png","ce/116900_ce.png","ours/116900_ours.png"],"rank_data":[2,1,0],"rank_result":["ours/116900_ours.png","ce/116900_ce.png","gl/116900_gl.png"],"rt":4832,"trial_type":"image-rank","trial_index":87,"time_elapsed":5599811,"internal_node_id":"0.0-87.0"},{"src":["ce/001631_ce.png","ours/001631_ours.png","gl/001631_gl.png"],"rank_data":[1,0,2],"rank_result":["ours/001631_ours.png","ce/001631_ce.png","gl/001631_gl.png"],"rt":5232,"trial_type":"image-rank","trial_index":88,"time_elapsed":5605043,"internal_node_id":"0.0-88.0"},{"src":["ce/088359_ce.png","ours/088359_ours.png","gl/088359_gl.png"],"rank_data":[2,0,1],"rank_result":["ours/088359_ours.png","gl/088359_gl.png","ce/088359_ce.png"],"rt":5112,"trial_type":"image-rank","trial_index":89,"time_elapsed":5610155,"internal_node_id":"0.0-89.0"},{"src":["ours/101844_ours.png","gl/101844_gl.png","ce/101844_ce.png"],"rank_data":[0,1,2],"rank_result":["ours/101844_ours.png","gl/101844_gl.png","ce/101844_ce.png"],"rt":5312,"trial_type":"image-rank","trial_index":90,"time_elapsed":5615467,"internal_node_id":"0.0-90.0"},{"src":["ce/147273_ce.png","gl/147273_gl.png","ours/147273_ours.png"],"rank_data":[1,2,0],"rank_result":["ours/147273_ours.png","ce/147273_ce.png","gl/147273_gl.png"],"rt":5080,"trial_type":"image-rank","trial_index":91,"time_elapsed":5620547,"internal_node_id":"0.0-91.0"},{"src":["ours/037257_ours.png","ce/037257_ce.png","gl/037257_gl.png"],"rank_data":[0,1,2],"rank_result":["ours/037257_ours.png","ce/037257_ce.png","gl/037257_gl.png"],"rt":6784,"trial_type":"image-rank","trial_index":92,"time_elapsed":5627331,"internal_node_id":"0.0-92.0"},{"src":["ours/125083_ours.png","ce/125083_ce.png","gl/125083_gl.png"],"rank_data":[0,1,2],"rank_result":["ours/125083_ours.png","ce/125083_ce.png","gl/125083_gl.png"],"rt":4200,"trial_type":"image-rank","trial_index":93,"time_elapsed":5631531,"internal_node_id":"0.0-93.0"},{"src":["gl/008654_gl.png","ce/008654_ce.png","ours/008654_ours.png"],"rank_data":[1,2,0],"rank_result":["ours/008654_ours.png","gl/008654_gl.png","ce/008654_ce.png"],"rt":6392,"trial_type":"image-rank","trial_index":94,"time_elapsed":5637923,"internal_node_id":"0.0-94.0"},{"src":["ours/114855_ours.png","ce/114855_ce.png","gl/114855_gl.png"],"rank_data":[0,1,2],"rank_result":["ours/114855_ours.png","ce/114855_ce.png","gl/114855_gl.png"],"rt":6664,"trial_type":"image-rank","trial_index":95,"time_elapsed":5644588,"internal_node_id":"0.0-95.0"},{"src":["ce/173479_ce.png","gl/173479_gl.png","ours/173479_ours.png"],"rank_data":[2,1,0],"rank_result":["ours/173479_ours.png","gl/173479_gl.png","ce/173479_ce.png"],"rt":5055,"trial_type":"image-rank","trial_index":96,"time_elapsed":5649644,"internal_node_id":"0.0-96.0"},{"src":["ce/169605_ce.png","gl/169605_gl.png","ours/169605_ours.png"],"rank_data":[2,1,0],"rank_result":["ours/169605_ours.png","gl/169605_gl.png","ce/169605_ce.png"],"rt":4111,"trial_type":"image-rank","trial_index":97,"time_elapsed":5653756,"internal_node_id":"0.0-97.0"},{"src":["ours/195160_ours.png","ce/195160_ce.png","gl/195160_gl.png"],"rank_data":[0,1,2],"rank_result":["ours/195160_ours.png","ce/195160_ce.png","gl/195160_gl.png"],"rt":4839,"trial_type":"image-rank","trial_index":98,"time_elapsed":5658595,"internal_node_id":"0.0-98.0"},{"src":["ours/130734_ours.png","gl/130734_gl.png","ce/130734_ce.png"],"rank_data":[0,2,1],"rank_result":["ours/130734_ours.png","ce/130734_ce.png","gl/130734_gl.png"],"rt":3479,"trial_type":"image-rank","trial_index":99,"time_elapsed":5662076,"internal_node_id":"0.0-99.0"},{"src":["ours/102436_ours.png","ce/102436_ce.png","gl/102436_gl.png"],"rank_data":[0,1,2],"rank_result":["ours/102436_ours.png","ce/102436_ce.png","gl/102436_gl.png"],"rt":5231,"trial_type":"image-rank","trial_index":100,"time_elapsed":5667308,"internal_node_id":"0.0-100.0"},{"src":["gl/046706_gl.png","ours/046706_ours.png","ce/046706_ce.png"],"rank_data":[1,0,2],"rank_result":["ours/046706_ours.png","gl/046706_gl.png","ce/046706_ce.png"],"rt":7167,"trial_type":"image-rank","trial_index":101,"time_elapsed":5674476,"internal_node_id":"0.0-101.0"},{"src":["gl/185769_gl.png","ours/185769_ours.png","ce/185769_ce.png"],"rank_data":[2,0,1],"rank_result":["ours/185769_ours.png","ce/185769_ce.png","gl/185769_gl.png"],"rt":3671,"trial_type":"image-rank","trial_index":102,"time_elapsed":5678148,"internal_node_id":"0.0-102.0"}]