[{"rt":3624,"stimulus":"Welcome to the experiment. Press any key to begin.","key_press":32,"trial_type":"html-keyboard-response","trial_index":0,"time_elapsed":3629,"internal_node_id":"0.0-0.0"},{"rt":33842,"stimulus":"<p>In this experiment, three images of people will appear in the center of the screen.</p><p>Your task is to rank these images based on how <strong>real</strong> you think they are.<p>The ranking level is between 1 to 3, with <strong>1</strong> representing the most realistic one and <strong>3</strong> the least realistic one.</p><p>There are totally 100 groups of images. The time to rank is not limited. </p> <p>When you finish one group, click the <strong>Continue</strong> button to continue to the next one.</p><p>At the end of the experiment, your name and age will be asked and recorded.</p>","key_press":32,"trial_type":"html-keyboard-response","trial_index":1,"time_elapsed":37474,"internal_node_id":"0.0-1.0"},{"rt":null,"stimulus":"<div style=\"font-size:60px;\"></div>","key_press":null,"trial_type":"html-keyboard-response","trial_index":2,"time_elapsed":38081,"internal_node_id":"0.0-2.0"},{"src":["gl/070758_gl.png","ours/070758_ours.png","ce/070758_ce.png"],"rank_data":[2,0,1],"rank_result":["ours/070758_ours.png","ce/070758_ce.png","gl/070758_gl.png"],"rt":11057,"trial_type":"image-rank","trial_index":3,"time_elapsed":49140,"internal_node_id":"0.0-3.0"},{"src":["ce/105059_ce.png","ours/105059_ours.png","gl/105059_gl.png"],"rank_data":[1,0,2],"rank_result":["ours/105059_ours.png","ce/105059_ce.png","gl/105059_gl.png"],"rt":12289,"trial_type":"image-rank","trial_index":4,"time_elapsed":61430,"internal_node_id":"0.0-4.0"},{"src":["ce/061250_ce.png","ours/061250_ours.png","gl/061250_gl.png"],"rank_data":[2,0,1],"rank_result":["ours/061250_ours.png","gl/061250_gl.png","ce/061250_ce.png"],"rt":12315,"trial_type":"image-rank","trial_index":5,"time_elapsed":73746,"internal_node_id":"0.0-5.0"},{"src":["gl/032862_gl.png","ours/032862_ours.png","ce/032862_ce.png"],"rank_data":[2,0,1],"rank_result":["ours/032862_ours.png","ce/032862_ce.png","gl/032862_gl.png"],"rt":7125,"trial_type":"image-rank","trial_index":6,"time_elapsed":80872,"internal_node_id":"0.0-6.0"},{"src":["ours/087997_ours.png","ce/087997_ce.png","gl/087997_gl.png"],"rank_data":[0,1,2],"rank_result":["ours/087997_ours.png","ce/087997_ce.png","gl/087997_gl.png"],"rt":6309,"trial_type":"image-rank","trial_index":7,"time_elapsed":87182,"internal_node_id":"0.0-7.0"},{"src":["ce/114333_ce.png","ours/114333_ours.png","gl/114333_gl.png"],"rank_data":[1,0,2],"rank_result":["ours/114333_ours.png","ce/114333_ce.png","gl/114333_gl.png"],"rt":8095,"trial_type":"image-rank","trial_index":8,"time_elapsed":95277,"internal_node_id":"0.0-8.0"},{"src":["ours/009198_ours.png","gl/009198_gl.png","ce/009198_ce.png"],"rank_data":[0,1,2],"rank_result":["ours/009198_ours.png","gl/009198_gl.png","ce/009198_ce.png"],"rt":8893,"trial_type":"image-rank","trial_index":9,"time_elapsed":104172,"internal_node_id":"0.0-9.0"},{"src":["ours/132474_ours.png","gl/132474_gl.png","ce/132474_ce.png"],"rank_data":[0,1,2],"rank_result":["ours/132474_ours.png","gl/132474_gl.png","ce/132474_ce.png"],"rt":7681,"trial_type":"image-rank","trial_index":10,"time_elapsed":111854,"internal_node_id":"0.0-10.0"},{"src":["ce/155235_ce.png","ours/155235_ours.png","gl/155235_gl.png"],"rank_data":[0,2,1],"rank_result":["ce/155235_ce.png","gl/155235_gl.png","ours/155235_ours.png"],"rt":8072,"trial_type":"image-rank","trial_index":11,"time_elapsed":119927,"internal_node_id":"0.0-11.0"},{"src":["ce/102436_ce.png","gl/102436_gl.png","ours/102436_ours.png"],"rank_data":[1,2,0],"rank_result":["ours/102436_ours.png","ce/102436_ce.png","gl/102436_gl.png"],"rt":9878,"trial_type":"image-rank","trial_index":12,"time_elapsed":129806,"internal_node_id":"0.0-12.0"},{"src":["ours/061448_ours.png","ce/061448_ce.png","gl/061448_gl.png"],"rank_data":[0,2,1],"rank_result":["ours/061448_ours.png","gl/061448_gl.png","ce/061448_ce.png"],"rt":5944,"trial_type":"image-rank","trial_index":13,"time_elapsed":135750,"internal_node_id":"0.0-13.0"},{"src":["ce/083942_ce.png","ours/083942_ours.png","gl/083942_gl.png"],"rank_data":[2,0,1],"rank_result":["ours/083942_ours.png","gl/083942_gl.png","ce/083942_ce.png"],"rt":10559,"trial_type":"image-rank","trial_index":14,"time_elapsed":146310,"internal_node_id":"0.0-14.0"},{"src":["ours/041135_ours.png","gl/041135_gl.png","ce/041135_ce.png"],"rank_data":[0,2,1],"rank_result":["ours/041135_ours.png","ce/041135_ce.png","gl/041135_gl.png"],"rt":9372,"trial_type":"image-rank","trial_index":15,"time_elapsed":155682,"internal_node_id":"0.0-15.0"},{"src":["ce/103842_ce.png","ours/103842_ours.png","gl/103842_gl.png"],"rank_data":[2,0,1],"rank_result":["ours/103842_ours.png","gl/103842_gl.png","ce/103842_ce.png"],"rt":7999,"trial_type":"image-rank","trial_index":16,"time_elapsed":163682,"internal_node_id":"0.0-16.0"},{"src":["ce/036518_ce.png","ours/036518_ours.png","gl/036518_gl.png"],"rank_data":[2,0,1],"rank_result":["ours/036518_ours.png","gl/036518_gl.png","ce/036518_ce.png"],"rt":7436,"trial_type":"image-rank","trial_index":17,"time_elapsed":171118,"internal_node_id":"0.0-17.0"},{"src":["gl/127243_gl.png","ours/127243_ours.png","ce/127243_ce.png"],"rank_data":[2,0,1],"rank_result":["ours/127243_ours.png","ce/127243_ce.png","gl/127243_gl.png"],"rt":6717,"trial_type":"image-rank","trial_index":18,"time_elapsed":177836,"internal_node_id":"0.0-18.0"},{"src":["ce/014002_ce.png","gl/014002_gl.png","ours/014002_ours.png"],"rank_data":[1,2,0],"rank_result":["ours/014002_ours.png","ce/014002_ce.png","gl/014002_gl.png"],"rt":5956,"trial_type":"image-rank","trial_index":19,"time_elapsed":183793,"internal_node_id":"0.0-19.0"},{"src":["ours/143036_ours.png","gl/143036_gl.png","ce/143036_ce.png"],"rank_data":[0,2,1],"rank_result":["ours/143036_ours.png","ce/143036_ce.png","gl/143036_gl.png"],"rt":5606,"trial_type":"image-rank","trial_index":20,"time_elapsed":189400,"internal_node_id":"0.0-20.0"},{"src":["gl/071496_gl.png","ours/071496_ours.png","ce/071496_ce.png"],"rank_data":[2,0,1],"rank_result":["ours/071496_ours.png","ce/071496_ce.png","gl/071496_gl.png"],"rt":9118,"trial_type":"image-rank","trial_index":21,"time_elapsed":198519,"internal_node_id":"0.0-21.0"},{"src":["ce/141991_ce.png","ours/141991_ours.png","gl/141991_gl.png"],"rank_data":[2,1,0],"rank_result":["gl/141991_gl.png","ours/141991_ours.png","ce/141991_ce.png"],"rt":12947,"trial_type":"image-rank","trial_index":22,"time_elapsed":211467,"internal_node_id":"0.0-22.0"},{"src":["gl/183460_gl.png","ours/183460_ours.png","ce/183460_ce.png"],"rank_data":[2,0,1],"rank_result":["ours/183460_ours.png","ce/183460_ce.png","gl/183460_gl.png"],"rt":7647,"trial_type":"image-rank","trial_index":23,"time_elapsed":219115,"internal_node_id":"0.0-23.0"},{"src":["ce/019563_ce.png","gl/019563_gl.png","ours/019563_ours.png"],"rank_data":[0,2,1],"rank_result":["ce/019563_ce.png","ours/019563_ours.png","gl/019563_gl.png"],"rt":7594,"trial_type":"image-rank","trial_index":24,"time_elapsed":226710,"internal_node_id":"0.0-24.0"},{"src":["ce/143573_ce.png","gl/143573_gl.png","ours/143573_ours.png"],"rank_data":[1,2,0],"rank_result":["ours/143573_ours.png","ce/143573_ce.png","gl/143573_gl.png"],"rt":8670,"trial_type":"image-rank","trial_index":25,"time_elapsed":235381,"internal_node_id":"0.0-25.0"},{"src":["ours/142439_ours.png","gl/142439_gl.png","ce/142439_ce.png"],"rank_data":[0,2,1],"rank_result":["ours/142439_ours.png","ce/142439_ce.png","gl/142439_gl.png"],"rt":6871,"trial_type":"image-rank","trial_index":26,"time_elapsed":242252,"internal_node_id":"0.0-26.0"},{"src":["ours/106291_ours.png","ce/106291_ce.png","gl/106291_gl.png"],"rank_data":[0,1,2],"rank_result":["ours/106291_ours.png","ce/106291_ce.png","gl/106291_gl.png"],"rt":14192,"trial_type":"image-rank","trial_index":27,"time_elapsed":256444,"internal_node_id":"0.0-27.0"},{"src":["gl/092278_gl.png","ce/092278_ce.png","ours/092278_ours.png"],"rank_data":[2,1,0],"rank_result":["ours/092278_ours.png","ce/092278_ce.png","gl/092278_gl.png"],"rt":18777,"trial_type":"image-rank","trial_index":28,"time_elapsed":275222,"internal_node_id":"0.0-28.0"},{"src":["gl/129142_gl.png","ours/129142_ours.png","ce/129142_ce.png"],"rank_data":[2,1,0],"rank_result":["ce/129142_ce.png","ours/129142_ours.png","gl/129142_gl.png"],"rt":10283,"trial_type":"image-rank","trial_index":29,"time_elapsed":285506,"internal_node_id":"0.0-29.0"},{"src":["ce/190780_ce.png","gl/190780_gl.png","ours/190780_ours.png"],"rank_data":[0,2,1],"rank_result":["ce/190780_ce.png","ours/190780_ours.png","gl/190780_gl.png"],"rt":8398,"trial_type":"image-rank","trial_index":30,"time_elapsed":293904,"internal_node_id":"0.0-30.0"},{"src":["ce/025359_ce.png","gl/025359_gl.png","ours/025359_ours.png"],"rank_data":[1,2,0],"rank_result":["ours/025359_ours.png","ce/025359_ce.png","gl/025359_gl.png"],"rt":9189,"trial_type":"image-rank","trial_index":31,"time_elapsed":303094,"internal_node_id":"0.0-31.0"},{"src":["ce/013947_ce.png","gl/013947_gl.png","ours/013947_ours.png"],"rank_data":[0,2,1],"rank_result":["ce/013947_ce.png","ours/013947_ours.png","gl/013947_gl.png"],"rt":7012,"trial_type":"image-rank","trial_index":32,"time_elapsed":310106,"internal_node_id":"0.0-32.0"},{"src":["ours/128325_ours.png","gl/128325_gl.png","ce/128325_ce.png"],"rank_data":[0,1,2],"rank_result":["ours/128325_ours.png","gl/128325_gl.png","ce/128325_ce.png"],"rt":7325,"trial_type":"image-rank","trial_index":33,"time_elapsed":317432,"internal_node_id":"0.0-33.0"},{"src":["ce/083284_ce.png","gl/083284_gl.png","ours/083284_ours.png"],"rank_data":[2,1,0],"rank_result":["ours/083284_ours.png","gl/083284_gl.png","ce/083284_ce.png"],"rt":5689,"trial_type":"image-rank","trial_index":34,"time_elapsed":323122,"internal_node_id":"0.0-34.0"},{"src":["ours/097087_ours.png","gl/097087_gl.png","ce/097087_ce.png"],"rank_data":[0,1,2],"rank_result":["ours/097087_ours.png","gl/097087_gl.png","ce/097087_ce.png"],"rt":6886,"trial_type":"image-rank","trial_index":35,"time_elapsed":330008,"internal_node_id":"0.0-35.0"},{"src":["ours/049416_ours.png","ce/049416_ce.png","gl/049416_gl.png"],"rank_data":[0,2,1],"rank_result":["ours/049416_ours.png","gl/049416_gl.png","ce/049416_ce.png"],"rt":13827,"trial_type":"image-rank","trial_index":36,"time_elapsed":343836,"internal_node_id":"0.0-36.0"},{"src":["gl/178362_gl.png","ce/178362_ce.png","ours/178362_ours.png"],"rank_data":[2,1,0],"rank_result":["ours/178362_ours.png","ce/178362_ce.png","gl/178362_gl.png"],"rt":6353,"trial_type":"image-rank","trial_index":37,"time_elapsed":350190,"internal_node_id":"0.0-37.0"},{"src":["ours/189643_ours.png","gl/189643_gl.png","ce/189643_ce.png"],"rank_data":[0,2,1],"rank_result":["ours/189643_ours.png","ce/189643_ce.png","gl/189643_gl.png"],"rt":5987,"trial_type":"image-rank","trial_index":38,"time_elapsed":356178,"internal_node_id":"0.0-38.0"},{"src":["ours/103941_ours.png","ce/103941_ce.png","gl/103941_gl.png"],"rank_data":[1,2,0],"rank_result":["gl/103941_gl.png","ours/103941_ours.png","ce/103941_ce.png"],"rt":9318,"trial_type":"image-rank","trial_index":39,"time_elapsed":365496,"internal_node_id":"0.0-39.0"},{"src":["ce/136398_ce.png","gl/136398_gl.png","ours/136398_ours.png"],"rank_data":[0,2,1],"rank_result":["ce/136398_ce.png","ours/136398_ours.png","gl/136398_gl.png"],"rt":8805,"trial_type":"image-rank","trial_index":40,"time_elapsed":374302,"internal_node_id":"0.0-40.0"},{"src":["gl/041353_gl.png","ours/041353_ours.png","ce/041353_ce.png"],"rank_data":[1,0,2],"rank_result":["ours/041353_ours.png","gl/041353_gl.png","ce/041353_ce.png"],"rt":9140,"trial_type":"image-rank","trial_index":41,"time_elapsed":383442,"internal_node_id":"0.0-41.0"},{"src":["gl/125295_gl.png","ours/125295_ours.png","ce/125295_ce.png"],"rank_data":[1,2,0],"rank_result":["ce/125295_ce.png","gl/125295_gl.png","ours/125295_ours.png"],"rt":17459,"trial_type":"image-rank","trial_index":42,"time_elapsed":400902,"internal_node_id":"0.0-42.0"},{"src":["ce/045371_ce.png","ours/045371_ours.png","gl/045371_gl.png"],"rank_data":[1,0,2],"rank_result":["ours/045371_ours.png","ce/045371_ce.png","gl/045371_gl.png"],"rt":7199,"trial_type":"image-rank","trial_index":43,"time_elapsed":408102,"internal_node_id":"0.0-43.0"},{"src":["gl/159538_gl.png","ours/159538_ours.png","ce/159538_ce.png"],"rank_data":[2,0,1],"rank_result":["ours/159538_ours.png","ce/159538_ce.png","gl/159538_gl.png"],"rt":11912,"trial_type":"image-rank","trial_index":44,"time_elapsed":420014,"internal_node_id":"0.0-44.0"},{"src":["ce/201835_ce.png","gl/201835_gl.png","ours/201835_ours.png"],"rank_data":[1,2,0],"rank_result":["ours/201835_ours.png","ce/201835_ce.png","gl/201835_gl.png"],"rt":4625,"trial_type":"image-rank","trial_index":45,"time_elapsed":424639,"internal_node_id":"0.0-45.0"},{"src":["ce/085043_ce.png","gl/085043_gl.png","ours/085043_ours.png"],"rank_data":[1,2,0],"rank_result":["ours/085043_ours.png","ce/085043_ce.png","gl/085043_gl.png"],"rt":8138,"trial_type":"image-rank","trial_index":46,"time_elapsed":432777,"internal_node_id":"0.0-46.0"},{"src":["ours/009069_ours.png","gl/009069_gl.png","ce/009069_ce.png"],"rank_data":[0,2,1],"rank_result":["ours/009069_ours.png","ce/009069_ce.png","gl/009069_gl.png"],"rt":6995,"trial_type":"image-rank","trial_index":47,"time_elapsed":439774,"internal_node_id":"0.0-47.0"},{"src":["ce/000825_ce.png","ours/000825_ours.png","gl/000825_gl.png"],"rank_data":[1,0,2],"rank_result":["ours/000825_ours.png","ce/000825_ce.png","gl/000825_gl.png"],"rt":8058,"trial_type":"image-rank","trial_index":48,"time_elapsed":447833,"internal_node_id":"0.0-48.0"},{"src":["ce/026435_ce.png","gl/026435_gl.png","ours/026435_ours.png"],"rank_data":[2,1,0],"rank_result":["ours/026435_ours.png","gl/026435_gl.png","ce/026435_ce.png"],"rt":4422,"trial_type":"image-rank","trial_index":49,"time_elapsed":452255,"internal_node_id":"0.0-49.0"},{"src":["ce/064834_ce.png","ours/064834_ours.png","gl/064834_gl.png"],"rank_data":[2,0,1],"rank_result":["ours/064834_ours.png","gl/064834_gl.png","ce/064834_ce.png"],"rt":5603,"trial_type":"image-rank","trial_index":50,"time_elapsed":457859,"internal_node_id":"0.0-50.0"},{"src":["ce/192660_ce.png","gl/192660_gl.png","ours/192660_ours.png"],"rank_data":[1,2,0],"rank_result":["ours/192660_ours.png","ce/192660_ce.png","gl/192660_gl.png"],"rt":6542,"trial_type":"image-rank","trial_index":51,"time_elapsed":464401,"internal_node_id":"0.0-51.0"},{"src":["gl/107875_gl.png","ce/107875_ce.png","ours/107875_ours.png"],"rank_data":[2,1,0],"rank_result":["ours/107875_ours.png","ce/107875_ce.png","gl/107875_gl.png"],"rt":7591,"trial_type":"image-rank","trial_index":52,"time_elapsed":471993,"internal_node_id":"0.0-52.0"},{"src":["gl/034088_gl.png","ce/034088_ce.png","ours/034088_ours.png"],"rank_data":[1,2,0],"rank_result":["ours/034088_ours.png","gl/034088_gl.png","ce/034088_ce.png"],"rt":7873,"trial_type":"image-rank","trial_index":53,"time_elapsed":479867,"internal_node_id":"0.0-53.0"},{"src":["gl/006158_gl.png","ours/006158_ours.png","ce/006158_ce.png"],"rank_data":[1,0,2],"rank_result":["ours/006158_ours.png","gl/006158_gl.png","ce/006158_ce.png"],"rt":5609,"trial_type":"image-rank","trial_index":54,"time_elapsed":485477,"internal_node_id":"0.0-54.0"},{"src":["ce/185258_ce.png","gl/185258_gl.png","ours/185258_ours.png"],"rank_data":[2,1,0],"rank_result":["ours/185258_ours.png","gl/185258_gl.png","ce/185258_ce.png"],"rt":5149,"trial_type":"image-rank","trial_index":55,"time_elapsed":490626,"internal_node_id":"0.0-55.0"},{"src":["gl/151563_gl.png","ce/151563_ce.png","ours/151563_ours.png"],"rank_data":[2,1,0],"rank_result":["ours/151563_ours.png","ce/151563_ce.png","gl/151563_gl.png"],"rt":8567,"trial_type":"image-rank","trial_index":56,"time_elapsed":499195,"internal_node_id":"0.0-56.0"},{"src":["ours/186822_ours.png","gl/186822_gl.png","ce/186822_ce.png"],"rank_data":[0,1,2],"rank_result":["ours/186822_ours.png","gl/186822_gl.png","ce/186822_ce.png"],"rt":7591,"trial_type":"image-rank","trial_index":57,"time_elapsed":506786,"internal_node_id":"0.0-57.0"},{"src":["ce/147927_ce.png","gl/147927_gl.png","ours/147927_ours.png"],"rank_data":[1,2,0],"rank_result":["ours/147927_ours.png","ce/147927_ce.png","gl/147927_gl.png"],"rt":7754,"trial_type":"image-rank","trial_index":58,"time_elapsed":514541,"internal_node_id":"0.0-58.0"},{"src":["ours/107932_ours.png","gl/107932_gl.png","ce/107932_ce.png"],"rank_data":[0,1,2],"rank_result":["ours/107932_ours.png","gl/107932_gl.png","ce/107932_ce.png"],"rt":8083,"trial_type":"image-rank","trial_index":59,"time_elapsed":522624,"internal_node_id":"0.0-59.0"},{"src":["gl/119181_gl.png","ce/119181_ce.png","ours/119181_ours.png"],"rank_data":[1,2,0],"rank_result":["ours/119181_ours.png","gl/119181_gl.png","ce/119181_ce.png"],"rt":6057,"trial_type":"image-rank","trial_index":60,"time_elapsed":528682,"internal_node_id":"0.0-60.0"},{"src":["ce/048548_ce.png","ours/048548_ours.png","gl/048548_gl.png"],"rank_data":[1,0,2],"rank_result":["ours/048548_ours.png","ce/048548_ce.png","gl/048548_gl.png"],"rt":6562,"trial_type":"image-rank","trial_index":61,"time_elapsed":535245,"internal_node_id":"0.0-61.0"},{"src":["ours/180994_ours.png","gl/180994_gl.png","ce/180994_ce.png"],"rank_data":[0,2,1],"rank_result":["ours/180994_ours.png","ce/180994_ce.png","gl/180994_gl.png"],"rt":7602,"trial_type":"image-rank","trial_index":62,"time_elapsed":542848,"internal_node_id":"0.0-62.0"},{"src":["ce/005926_ce.png","gl/005926_gl.png","ours/005926_ours.png"],"rank_data":[0,2,1],"rank_result":["ce/005926_ce.png","ours/005926_ours.png","gl/005926_gl.png"],"rt":12874,"trial_type":"image-rank","trial_index":63,"time_elapsed":555723,"internal_node_id":"0.0-63.0"},{"src":["ce/068390_ce.png","gl/068390_gl.png","ours/068390_ours.png"],"rank_data":[1,0,2],"rank_result":["gl/068390_gl.png","ce/068390_ce.png","ours/068390_ours.png"],"rt":13709,"trial_type":"image-rank","trial_index":64,"time_elapsed":569433,"internal_node_id":"0.0-64.0"},{"src":["ours/069583_ours.png","gl/069583_gl.png","ce/069583_ce.png"],"rank_data":[1,2,0],"rank_result":["ce/069583_ce.png","ours/069583_ours.png","gl/069583_gl.png"],"rt":11253,"trial_type":"image-rank","trial_index":65,"time_elapsed":580686,"internal_node_id":"0.0-65.0"},{"src":["gl/178430_gl.png","ours/178430_ours.png","ce/178430_ce.png"],"rank_data":[1,0,2],"rank_result":["ours/178430_ours.png","gl/178430_gl.png","ce/178430_ce.png"],"rt":6030,"trial_type":"image-rank","trial_index":66,"time_elapsed":586718,"internal_node_id":"0.0-66.0"},{"src":["ce/126515_ce.png","ours/126515_ours.png","gl/126515_gl.png"],"rank_data":[1,0,2],"rank_result":["ours/126515_ours.png","ce/126515_ce.png","gl/126515_gl.png"],"rt":8067,"trial_type":"image-rank","trial_index":67,"time_elapsed":594786,"internal_node_id":"0.0-67.0"},{"src":["ours/078595_ours.png","ce/078595_ce.png","gl/078595_gl.png"],"rank_data":[0,1,2],"rank_result":["ours/078595_ours.png","ce/078595_ce.png","gl/078595_gl.png"],"rt":5985,"trial_type":"image-rank","trial_index":68,"time_elapsed":600772,"internal_node_id":"0.0-68.0"},{"src":["ce/032895_ce.png","ours/032895_ours.png","gl/032895_gl.png"],"rank_data":[1,0,2],"rank_result":["ours/032895_ours.png","ce/032895_ce.png","gl/032895_gl.png"],"rt":10552,"trial_type":"image-rank","trial_index":69,"time_elapsed":611326,"internal_node_id":"0.0-69.0"},{"src":["ours/003210_ours.png","gl/003210_gl.png","ce/003210_ce.png"],"rank_data":[0,2,1],"rank_result":["ours/003210_ours.png","ce/003210_ce.png","gl/003210_gl.png"],"rt":6893,"trial_type":"image-rank","trial_index":70,"time_elapsed":618220,"internal_node_id":"0.0-70.0"},{"src":["ours/065314_ours.png","ce/065314_ce.png","gl/065314_gl.png"],"rank_data":[0,1,2],"rank_result":["ours/065314_ours.png","ce/065314_ce.png","gl/065314_gl.png"],"rt":4263,"trial_type":"image-rank","trial_index":71,"time_elapsed":622483,"internal_node_id":"0.0-71.0"},{"src":["ours/084517_ours.png","ce/084517_ce.png","gl/084517_gl.png"],"rank_data":[0,1,2],"rank_result":["ours/084517_ours.png","ce/084517_ce.png","gl/084517_gl.png"],"rt":3965,"trial_type":"image-rank","trial_index":72,"time_elapsed":626449,"internal_node_id":"0.0-72.0"},{"src":["ce/101504_ce.png","gl/101504_gl.png","ours/101504_ours.png"],"rank_data":[1,2,0],"rank_result":["ours/101504_ours.png","ce/101504_ce.png","gl/101504_gl.png"],"rt":6095,"trial_type":"image-rank","trial_index":73,"time_elapsed":632545,"internal_node_id":"0.0-73.0"},{"src":["ce/162632_ce.png","gl/162632_gl.png","ours/162632_ours.png"],"rank_data":[0,2,1],"rank_result":["ce/162632_ce.png","ours/162632_ours.png","gl/162632_gl.png"],"rt":10489,"trial_type":"image-rank","trial_index":74,"time_elapsed":643035,"internal_node_id":"0.0-74.0"},{"src":["ours/119541_ours.png","ce/119541_ce.png","gl/119541_gl.png"],"rank_data":[0,2,1],"rank_result":["ours/119541_ours.png","gl/119541_gl.png","ce/119541_ce.png"],"rt":5647,"trial_type":"image-rank","trial_index":75,"time_elapsed":648684,"internal_node_id":"0.0-75.0"},{"src":["gl/114201_gl.png","ours/114201_ours.png","ce/114201_ce.png"],"rank_data":[1,0,2],"rank_result":["ours/114201_ours.png","gl/114201_gl.png","ce/114201_ce.png"],"rt":6125,"trial_type":"image-rank","trial_index":76,"time_elapsed":654809,"internal_node_id":"0.0-76.0"},{"src":["ours/074630_ours.png","ce/074630_ce.png","gl/074630_gl.png"],"rank_data":[0,2,1],"rank_result":["ours/074630_ours.png","gl/074630_gl.png","ce/074630_ce.png"],"rt":7157,"trial_type":"image-rank","trial_index":77,"time_elapsed":661967,"internal_node_id":"0.0-77.0"},{"src":["ce/053544_ce.png","gl/053544_gl.png","ours/053544_ours.png"],"rank_data":[2,1,0],"rank_result":["ours/053544_ours.png","gl/053544_gl.png","ce/053544_ce.png"],"rt":4240,"trial_type":"image-rank","trial_index":78,"time_elapsed":666208,"internal_node_id":"0.0-78.0"},{"src":["ce/049462_ce.png","gl/049462_gl.png","ours/049462_ours.png"],"rank_data":[1,2,0],"rank_result":["ours/049462_ours.png","ce/049462_ce.png","gl/049462_gl.png"],"rt":5579,"trial_type":"image-rank","trial_index":79,"time_elapsed":671787,"internal_node_id":"0.0-79.0"},{"src":["gl/178809_gl.png","ce/178809_ce.png","ours/178809_ours.png"],"rank_data":[2,1,0],"rank_result":["ours/178809_ours.png","ce/178809_ce.png","gl/178809_gl.png"],"rt":5031,"trial_type":"image-rank","trial_index":80,"time_elapsed":676819,"internal_node_id":"0.0-80.0"},{"src":["ours/009326_ours.png","ce/009326_ce.png","gl/009326_gl.png"],"rank_data":[0,1,2],"rank_result":["ours/009326_ours.png","ce/009326_ce.png","gl/009326_gl.png"],"rt":6454,"trial_type":"image-rank","trial_index":81,"time_elapsed":683274,"internal_node_id":"0.0-81.0"},{"src":["ours/173186_ours.png","ce/173186_ce.png","gl/173186_gl.png"],"rank_data":[0,1,2],"rank_result":["ours/173186_ours.png","ce/173186_ce.png","gl/173186_gl.png"],"rt":5349,"trial_type":"image-rank","trial_index":82,"time_elapsed":688623,"internal_node_id":"0.0-82.0"},{"src":["gl/190124_gl.png","ce/190124_ce.png","ours/190124_ours.png"],"rank_data":[1,2,0],"rank_result":["ours/190124_ours.png","gl/190124_gl.png","ce/190124_ce.png"],"rt":6706,"trial_type":"image-rank","trial_index":83,"time_elapsed":695329,"internal_node_id":"0.0-83.0"},{"src":["ce/065879_ce.png","ours/065879_ours.png","gl/065879_gl.png"],"rank_data":[1,0,2],"rank_result":["ours/065879_ours.png","ce/065879_ce.png","gl/065879_gl.png"],"rt":7084,"trial_type":"image-rank","trial_index":84,"time_elapsed":702415,"internal_node_id":"0.0-84.0"},{"src":["gl/116558_gl.png","ours/116558_ours.png","ce/116558_ce.png"],"rank_data":[1,0,2],"rank_result":["ours/116558_ours.png","gl/116558_gl.png","ce/116558_ce.png"],"rt":5381,"trial_type":"image-rank","trial_index":85,"time_elapsed":707797,"internal_node_id":"0.0-85.0"},{"src":["ours/175211_ours.png","gl/175211_gl.png","ce/175211_ce.png"],"rank_data":[1,0,2],"rank_result":["gl/175211_gl.png","ours/175211_ours.png","ce/175211_ce.png"],"rt":7799,"trial_type":"image-rank","trial_index":86,"time_elapsed":715597,"internal_node_id":"0.0-86.0"},{"src":["ce/100070_ce.png","ours/100070_ours.png","gl/100070_gl.png"],"rank_data":[2,0,1],"rank_result":["ours/100070_ours.png","gl/100070_gl.png","ce/100070_ce.png"],"rt":8917,"trial_type":"image-rank","trial_index":87,"time_elapsed":724515,"internal_node_id":"0.0-87.0"},{"src":["gl/106934_gl.png","ours/106934_ours.png","ce/106934_ce.png"],"rank_data":[2,0,1],"rank_result":["ours/106934_ours.png","ce/106934_ce.png","gl/106934_gl.png"],"rt":7538,"trial_type":"image-rank","trial_index":88,"time_elapsed":732054,"internal_node_id":"0.0-88.0"},{"src":["ce/150507_ce.png","gl/150507_gl.png","ours/150507_ours.png"],"rank_data":[1,2,0],"rank_result":["ours/150507_ours.png","ce/150507_ce.png","gl/150507_gl.png"],"rt":7361,"trial_type":"image-rank","trial_index":89,"time_elapsed":739415,"internal_node_id":"0.0-89.0"},{"src":["ours/170045_ours.png","gl/170045_gl.png","ce/170045_ce.png"],"rank_data":[1,2,0],"rank_result":["ce/170045_ce.png","ours/170045_ours.png","gl/170045_gl.png"],"rt":7446,"trial_type":"image-rank","trial_index":90,"time_elapsed":746862,"internal_node_id":"0.0-90.0"},{"src":["ce/031959_ce.png","gl/031959_gl.png","ours/031959_ours.png"],"rank_data":[1,2,0],"rank_result":["ours/031959_ours.png","ce/031959_ce.png","gl/031959_gl.png"],"rt":5574,"trial_type":"image-rank","trial_index":91,"time_elapsed":752437,"internal_node_id":"0.0-91.0"},{"src":["gl/154313_gl.png","ce/154313_ce.png","ours/154313_ours.png"],"rank_data":[1,2,0],"rank_result":["ours/154313_ours.png","gl/154313_gl.png","ce/154313_ce.png"],"rt":5121,"trial_type":"image-rank","trial_index":92,"time_elapsed":757559,"internal_node_id":"0.0-92.0"},{"src":["gl/086375_gl.png","ce/086375_ce.png","ours/086375_ours.png"],"rank_data":[2,1,0],"rank_result":["ours/086375_ours.png","ce/086375_ce.png","gl/086375_gl.png"],"rt":5451,"trial_type":"image-rank","trial_index":93,"time_elapsed":763011,"internal_node_id":"0.0-93.0"},{"src":["gl/150040_gl.png","ours/150040_ours.png","ce/150040_ce.png"],"rank_data":[2,0,1],"rank_result":["ours/150040_ours.png","ce/150040_ce.png","gl/150040_gl.png"],"rt":5043,"trial_type":"image-rank","trial_index":94,"time_elapsed":768055,"internal_node_id":"0.0-94.0"},{"src":["ours/196944_ours.png","ce/196944_ce.png","gl/196944_gl.png"],"rank_data":[0,2,1],"rank_result":["ours/196944_ours.png","gl/196944_gl.png","ce/196944_ce.png"],"rt":9235,"trial_type":"image-rank","trial_index":95,"time_elapsed":777291,"internal_node_id":"0.0-95.0"},{"src":["ours/112474_ours.png","gl/112474_gl.png","ce/112474_ce.png"],"rank_data":[0,2,1],"rank_result":["ours/112474_ours.png","ce/112474_ce.png","gl/112474_gl.png"],"rt":8958,"trial_type":"image-rank","trial_index":96,"time_elapsed":786249,"internal_node_id":"0.0-96.0"},{"src":["gl/154940_gl.png","ours/154940_ours.png","ce/154940_ce.png"],"rank_data":[1,0,2],"rank_result":["ours/154940_ours.png","gl/154940_gl.png","ce/154940_ce.png"],"rt":7081,"trial_type":"image-rank","trial_index":97,"time_elapsed":793332,"internal_node_id":"0.0-97.0"},{"src":["gl/044700_gl.png","ce/044700_ce.png","ours/044700_ours.png"],"rank_data":[2,1,0],"rank_result":["ours/044700_ours.png","ce/044700_ce.png","gl/044700_gl.png"],"rt":9468,"trial_type":"image-rank","trial_index":98,"time_elapsed":802800,"internal_node_id":"0.0-98.0"},{"src":["ours/077362_ours.png","ce/077362_ce.png","gl/077362_gl.png"],"rank_data":[0,1,2],"rank_result":["ours/077362_ours.png","ce/077362_ce.png","gl/077362_gl.png"],"rt":6139,"trial_type":"image-rank","trial_index":99,"time_elapsed":808940,"internal_node_id":"0.0-99.0"},{"src":["ce/170535_ce.png","gl/170535_gl.png","ours/170535_ours.png"],"rank_data":[1,2,0],"rank_result":["ours/170535_ours.png","ce/170535_ce.png","gl/170535_gl.png"],"rt":6467,"trial_type":"image-rank","trial_index":100,"time_elapsed":815408,"internal_node_id":"0.0-100.0"},{"src":["ours/100625_ours.png","gl/100625_gl.png","ce/100625_ce.png"],"rank_data":[0,2,1],"rank_result":["ours/100625_ours.png","ce/100625_ce.png","gl/100625_gl.png"],"rt":7495,"trial_type":"image-rank","trial_index":101,"time_elapsed":822903,"internal_node_id":"0.0-101.0"},{"src":["ce/077820_ce.png","gl/077820_gl.png","ours/077820_ours.png"],"rank_data":[2,1,0],"rank_result":["ours/077820_ours.png","gl/077820_gl.png","ce/077820_ce.png"],"rt":5128,"trial_type":"image-rank","trial_index":102,"time_elapsed":828033,"internal_node_id":"0.0-102.0"},{"rt":6035,"responses":"{\"Q0\":\"weijue chen\"}","trial_type":"survey-text","trial_index":103,"time_elapsed":834070,"internal_node_id":"0.0-103.0"},{"rt":4050,"responses":"{\"Q0\":\"25\"}","trial_type":"survey-text","trial_index":104,"time_elapsed":838122,"internal_node_id":"0.0-104.0"},{"rt":2244,"stimulus":"<div style=\"font-size:15px;\">You have reached the end of the experiment! Press any key to finish.</div>","key_press":32,"trial_type":"html-keyboard-response","trial_index":105,"time_elapsed":840366,"internal_node_id":"0.0-105.0"}]