[{"rt":2299,"stimulus":"Welcome to the experiment. Press any key to begin.","key_press":68,"trial_type":"html-keyboard-response","trial_index":0,"time_elapsed":2301,"internal_node_id":"0.0-0.0"},{"rt":3372,"stimulus":"<p>In this experiment, three images of people will appear in the center of the screen.</p><p>Your task is to rank these images based on how <strong>real</strong> you think they are.<p>The ranking level is between 1 to 3, with <strong>1</strong> representing the most real one and <strong>3</strong> the fakest one.</p><p>The time to rank is not limited. When you finish ranking, click the <strong>Continue</strong> button to continue.</p>","key_press":84,"trial_type":"html-keyboard-response","trial_index":1,"time_elapsed":5676,"internal_node_id":"0.0-1.0"},{"rt":null,"stimulus":"<div style=\"font-size:60px;\"></div>","key_press":null,"label":"fixation","trial_type":"html-keyboard-response","trial_index":2,"time_elapsed":6679,"internal_node_id":"0.0-2.0"},{"src":["ce/042137_ce.png","ours/042137_ours.png","gl/042137_gl.png"],"rank_data":[1,0,2],"rank_result":["ours/042137_ours.png","ce/042137_ce.png","gl/042137_gl.png"],"rt":8875,"trial_type":"image-rank","trial_index":3,"time_elapsed":15559,"internal_node_id":"0.0-3.0"},{"src":["ours/019784_ours.png","ce/019784_ce.png","gl/019784_gl.png"],"rank_data":[0,1,2],"rank_result":["ours/019784_ours.png","ce/019784_ce.png","gl/019784_gl.png"],"rt":8915,"trial_type":"image-rank","trial_index":4,"time_elapsed":24478,"internal_node_id":"0.0-4.0"},{"src":["ours/013027_ours.png","ce/013027_ce.png","gl/013027_gl.png"],"rank_data":[0,1,2],"rank_result":["ours/013027_ours.png","ce/013027_ce.png","gl/013027_gl.png"],"rt":11145,"trial_type":"image-rank","trial_index":5,"time_elapsed":35625,"internal_node_id":"0.0-5.0"},{"src":["ours/102037_ours.png","ce/102037_ce.png","gl/102037_gl.png"],"rank_data":[0,2,1],"rank_result":["ours/102037_ours.png","gl/102037_gl.png","ce/102037_ce.png"],"rt":6605,"trial_type":"image-rank","trial_index":6,"time_elapsed":42231,"internal_node_id":"0.0-6.0"},{"src":["ours/151098_ours.png","gl/151098_gl.png","ce/151098_ce.png"],"rank_data":[1,2,0],"rank_result":["ce/151098_ce.png","ours/151098_ours.png","gl/151098_gl.png"],"rt":9785,"trial_type":"image-rank","trial_index":7,"time_elapsed":52017,"internal_node_id":"0.0-7.0"},{"src":["gl/068233_gl.png","ce/068233_ce.png","ours/068233_ours.png"],"rank_data":[1,2,0],"rank_result":["ours/068233_ours.png","gl/068233_gl.png","ce/068233_ce.png"],"rt":5757,"trial_type":"image-rank","trial_index":8,"time_elapsed":57776,"internal_node_id":"0.0-8.0"},{"src":["ce/083382_ce.png","ours/083382_ours.png","gl/083382_gl.png"],"rank_data":[1,0,2],"rank_result":["ours/083382_ours.png","ce/083382_ce.png","gl/083382_gl.png"],"rt":9515,"trial_type":"image-rank","trial_index":9,"time_elapsed":67293,"internal_node_id":"0.0-9.0"},{"src":["ours/184597_ours.png","gl/184597_gl.png","ce/184597_ce.png"],"rank_data":[0,1,2],"rank_result":["ours/184597_ours.png","gl/184597_gl.png","ce/184597_ce.png"],"rt":6935,"trial_type":"image-rank","trial_index":10,"time_elapsed":74230,"internal_node_id":"0.0-10.0"},{"src":["ours/117153_ours.png","ce/117153_ce.png","gl/117153_gl.png"],"rank_data":[1,2,0],"rank_result":["gl/117153_gl.png","ours/117153_ours.png","ce/117153_ce.png"],"rt":19451,"trial_type":"image-rank","trial_index":11,"time_elapsed":93683,"internal_node_id":"0.0-11.0"},{"src":["ours/073496_ours.png","ce/073496_ce.png","gl/073496_gl.png"],"rank_data":[0,1,2],"rank_result":["ours/073496_ours.png","ce/073496_ce.png","gl/073496_gl.png"],"rt":7890,"trial_type":"image-rank","trial_index":12,"time_elapsed":101575,"internal_node_id":"0.0-12.0"},{"src":["ce/092484_ce.png","ours/092484_ours.png","gl/092484_gl.png"],"rank_data":[1,0,2],"rank_result":["ours/092484_ours.png","ce/092484_ce.png","gl/092484_gl.png"],"rt":10881,"trial_type":"image-rank","trial_index":13,"time_elapsed":112458,"internal_node_id":"0.0-13.0"},{"src":["ce/198523_ce.png","gl/198523_gl.png","ours/198523_ours.png"],"rank_data":[0,2,1],"rank_result":["ce/198523_ce.png","ours/198523_ours.png","gl/198523_gl.png"],"rt":9461,"trial_type":"image-rank","trial_index":14,"time_elapsed":121919,"internal_node_id":"0.0-14.0"},{"src":["ours/148298_ours.png","ce/148298_ce.png","gl/148298_gl.png"],"rank_data":[0,2,1],"rank_result":["ours/148298_ours.png","gl/148298_gl.png","ce/148298_ce.png"],"rt":6644,"trial_type":"image-rank","trial_index":15,"time_elapsed":128566,"internal_node_id":"0.0-15.0"},{"src":["ours/085483_ours.png","ce/085483_ce.png","gl/085483_gl.png"],"rank_data":[0,2,1],"rank_result":["ours/085483_ours.png","gl/085483_gl.png","ce/085483_ce.png"],"rt":6744,"trial_type":"image-rank","trial_index":16,"time_elapsed":135313,"internal_node_id":"0.0-16.0"},{"src":["ours/150174_ours.png","gl/150174_gl.png","ce/150174_ce.png"],"rank_data":[0,2,1],"rank_result":["ours/150174_ours.png","ce/150174_ce.png","gl/150174_gl.png"],"rt":5659,"trial_type":"image-rank","trial_index":17,"time_elapsed":140975,"internal_node_id":"0.0-17.0"},{"src":["gl/137939_gl.png","ours/137939_ours.png","ce/137939_ce.png"],"rank_data":[1,0,2],"rank_result":["ours/137939_ours.png","gl/137939_gl.png","ce/137939_ce.png"],"rt":7932,"trial_type":"image-rank","trial_index":18,"time_elapsed":148909,"internal_node_id":"0.0-18.0"},{"src":["gl/167802_gl.png","ours/167802_ours.png","ce/167802_ce.png"],"rank_data":[2,1,0],"rank_result":["ce/167802_ce.png","ours/167802_ours.png","gl/167802_gl.png"],"rt":15278,"trial_type":"image-rank","trial_index":19,"time_elapsed":164188,"internal_node_id":"0.0-19.0"},{"src":["gl/030739_gl.png","ce/030739_ce.png","ours/030739_ours.png"],"rank_data":[2,1,0],"rank_result":["ours/030739_ours.png","ce/030739_ce.png","gl/030739_gl.png"],"rt":7635,"trial_type":"image-rank","trial_index":20,"time_elapsed":171824,"internal_node_id":"0.0-20.0"},{"src":["ce/046706_ce.png","ours/046706_ours.png","gl/046706_gl.png"],"rank_data":[1,0,2],"rank_result":["ours/046706_ours.png","ce/046706_ce.png","gl/046706_gl.png"],"rt":8185,"trial_type":"image-rank","trial_index":21,"time_elapsed":180011,"internal_node_id":"0.0-21.0"},{"src":["ce/114798_ce.png","ours/114798_ours.png","gl/114798_gl.png"],"rank_data":[2,0,1],"rank_result":["ours/114798_ours.png","gl/114798_gl.png","ce/114798_ce.png"],"rt":6082,"trial_type":"image-rank","trial_index":22,"time_elapsed":186095,"internal_node_id":"0.0-22.0"},{"src":["gl/043185_gl.png","ce/043185_ce.png","ours/043185_ours.png"],"rank_data":[2,1,0],"rank_result":["ours/043185_ours.png","ce/043185_ce.png","gl/043185_gl.png"],"rt":5000,"trial_type":"image-rank","trial_index":23,"time_elapsed":191097,"internal_node_id":"0.0-23.0"},{"src":["gl/182880_gl.png","ours/182880_ours.png","ce/182880_ce.png"],"rank_data":[1,0,2],"rank_result":["ours/182880_ours.png","gl/182880_gl.png","ce/182880_ce.png"],"rt":5038,"trial_type":"image-rank","trial_index":24,"time_elapsed":196137,"internal_node_id":"0.0-24.0"},{"src":["ours/114587_ours.png","ce/114587_ce.png","gl/114587_gl.png"],"rank_data":[0,2,1],"rank_result":["ours/114587_ours.png","gl/114587_gl.png","ce/114587_ce.png"],"rt":4832,"trial_type":"image-rank","trial_index":25,"time_elapsed":200973,"internal_node_id":"0.0-25.0"},{"src":["ours/201016_ours.png","ce/201016_ce.png","gl/201016_gl.png"],"rank_data":[0,2,1],"rank_result":["ours/201016_ours.png","gl/201016_gl.png","ce/201016_ce.png"],"rt":4927,"trial_type":"image-rank","trial_index":26,"time_elapsed":205903,"internal_node_id":"0.0-26.0"},{"src":["ce/154313_ce.png","gl/154313_gl.png","ours/154313_ours.png"],"rank_data":[1,2,0],"rank_result":["ours/154313_ours.png","ce/154313_ce.png","gl/154313_gl.png"],"rt":4353,"trial_type":"image-rank","trial_index":27,"time_elapsed":210258,"internal_node_id":"0.0-27.0"},{"src":["gl/023576_gl.png","ce/023576_ce.png","ours/023576_ours.png"],"rank_data":[1,2,0],"rank_result":["ours/023576_ours.png","gl/023576_gl.png","ce/023576_ce.png"],"rt":4403,"trial_type":"image-rank","trial_index":28,"time_elapsed":214663,"internal_node_id":"0.0-28.0"},{"src":["ours/019225_ours.png","gl/019225_gl.png","ce/019225_ce.png"],"rank_data":[0,2,1],"rank_result":["ours/019225_ours.png","ce/019225_ce.png","gl/019225_gl.png"],"rt":3938,"trial_type":"image-rank","trial_index":29,"time_elapsed":218603,"internal_node_id":"0.0-29.0"},{"src":["ce/164977_ce.png","ours/164977_ours.png","gl/164977_gl.png"],"rank_data":[2,0,1],"rank_result":["ours/164977_ours.png","gl/164977_gl.png","ce/164977_ce.png"],"rt":5459,"trial_type":"image-rank","trial_index":30,"time_elapsed":224064,"internal_node_id":"0.0-30.0"},{"src":["gl/096480_gl.png","ce/096480_ce.png","ours/096480_ours.png"],"rank_data":[1,2,0],"rank_result":["ours/096480_ours.png","gl/096480_gl.png","ce/096480_ce.png"],"rt":9358,"trial_type":"image-rank","trial_index":31,"time_elapsed":233423,"internal_node_id":"0.0-31.0"},{"src":["ce/130203_ce.png","gl/130203_gl.png","ours/130203_ours.png"],"rank_data":[2,1,0],"rank_result":["ours/130203_ours.png","gl/130203_gl.png","ce/130203_ce.png"],"rt":5540,"trial_type":"image-rank","trial_index":32,"time_elapsed":238965,"internal_node_id":"0.0-32.0"},{"src":["ce/049775_ce.png","ours/049775_ours.png","gl/049775_gl.png"],"rank_data":[1,0,2],"rank_result":["ours/049775_ours.png","ce/049775_ce.png","gl/049775_gl.png"],"rt":8559,"trial_type":"image-rank","trial_index":33,"time_elapsed":247528,"internal_node_id":"0.0-33.0"},{"src":["gl/023747_gl.png","ce/023747_ce.png","ours/023747_ours.png"],"rank_data":[2,1,0],"rank_result":["ours/023747_ours.png","ce/023747_ce.png","gl/023747_gl.png"],"rt":6370,"trial_type":"image-rank","trial_index":34,"time_elapsed":253901,"internal_node_id":"0.0-34.0"},{"src":["ours/106308_ours.png","ce/106308_ce.png","gl/106308_gl.png"],"rank_data":[0,1,2],"rank_result":["ours/106308_ours.png","ce/106308_ce.png","gl/106308_gl.png"],"rt":5459,"trial_type":"image-rank","trial_index":35,"time_elapsed":259362,"internal_node_id":"0.0-35.0"},{"src":["ce/034154_ce.png","gl/034154_gl.png","ours/034154_ours.png"],"rank_data":[1,2,0],"rank_result":["ours/034154_ours.png","ce/034154_ce.png","gl/034154_gl.png"],"rt":4326,"trial_type":"image-rank","trial_index":36,"time_elapsed":263692,"internal_node_id":"0.0-36.0"},{"src":["ce/032873_ce.png","gl/032873_gl.png","ours/032873_ours.png"],"rank_data":[2,1,0],"rank_result":["ours/032873_ours.png","gl/032873_gl.png","ce/032873_ce.png"],"rt":6054,"trial_type":"image-rank","trial_index":37,"time_elapsed":269749,"internal_node_id":"0.0-37.0"},{"src":["gl/029148_gl.png","ours/029148_ours.png","ce/029148_ce.png"],"rank_data":[2,1,0],"rank_result":["ce/029148_ce.png","ours/029148_ours.png","gl/029148_gl.png"],"rt":9956,"trial_type":"image-rank","trial_index":38,"time_elapsed":279708,"internal_node_id":"0.0-38.0"},{"src":["ce/185923_ce.png","gl/185923_gl.png","ours/185923_ours.png"],"rank_data":[1,2,0],"rank_result":["ours/185923_ours.png","ce/185923_ce.png","gl/185923_gl.png"],"rt":5165,"trial_type":"image-rank","trial_index":39,"time_elapsed":284875,"internal_node_id":"0.0-39.0"},{"src":["ours/083734_ours.png","ce/083734_ce.png","gl/083734_gl.png"],"rank_data":[0,2,1],"rank_result":["ours/083734_ours.png","gl/083734_gl.png","ce/083734_ce.png"],"rt":9723,"trial_type":"image-rank","trial_index":40,"time_elapsed":294599,"internal_node_id":"0.0-40.0"},{"src":["ce/165944_ce.png","gl/165944_gl.png","ours/165944_ours.png"],"rank_data":[0,2,1],"rank_result":["ce/165944_ce.png","ours/165944_ours.png","gl/165944_gl.png"],"rt":10969,"trial_type":"image-rank","trial_index":41,"time_elapsed":305571,"internal_node_id":"0.0-41.0"},{"src":["gl/002055_gl.png","ours/002055_ours.png","ce/002055_ce.png"],"rank_data":[2,0,1],"rank_result":["ours/002055_ours.png","ce/002055_ce.png","gl/002055_gl.png"],"rt":8181,"trial_type":"image-rank","trial_index":42,"time_elapsed":313761,"internal_node_id":"0.0-42.0"},{"src":["ours/099575_ours.png","ce/099575_ce.png","gl/099575_gl.png"],"rank_data":[0,2,1],"rank_result":["ours/099575_ours.png","gl/099575_gl.png","ce/099575_ce.png"],"rt":8857,"trial_type":"image-rank","trial_index":43,"time_elapsed":322618,"internal_node_id":"0.0-43.0"},{"src":["ours/067594_ours.png","gl/067594_gl.png","ce/067594_ce.png"],"rank_data":[0,2,1],"rank_result":["ours/067594_ours.png","ce/067594_ce.png","gl/067594_gl.png"],"rt":8485,"trial_type":"image-rank","trial_index":44,"time_elapsed":331106,"internal_node_id":"0.0-44.0"},{"src":["gl/076785_gl.png","ours/076785_ours.png","ce/076785_ce.png"],"rank_data":[1,0,2],"rank_result":["ours/076785_ours.png","gl/076785_gl.png","ce/076785_ce.png"],"rt":5435,"trial_type":"image-rank","trial_index":45,"time_elapsed":336543,"internal_node_id":"0.0-45.0"},{"src":["ce/090407_ce.png","gl/090407_gl.png","ours/090407_ours.png"],"rank_data":[2,1,0],"rank_result":["ours/090407_ours.png","gl/090407_gl.png","ce/090407_ce.png"],"rt":6728,"trial_type":"image-rank","trial_index":46,"time_elapsed":343274,"internal_node_id":"0.0-46.0"},{"src":["ce/059673_ce.png","ours/059673_ours.png","gl/059673_gl.png"],"rank_data":[1,0,2],"rank_result":["ours/059673_ours.png","ce/059673_ce.png","gl/059673_gl.png"],"rt":8307,"trial_type":"image-rank","trial_index":47,"time_elapsed":351583,"internal_node_id":"0.0-47.0"},{"src":["ce/025025_ce.png","gl/025025_gl.png","ours/025025_ours.png"],"rank_data":[1,2,0],"rank_result":["ours/025025_ours.png","ce/025025_ce.png","gl/025025_gl.png"],"rt":3961,"trial_type":"image-rank","trial_index":48,"time_elapsed":355545,"internal_node_id":"0.0-48.0"},{"src":["ours/190186_ours.png","gl/190186_gl.png","ce/190186_ce.png"],"rank_data":[0,2,1],"rank_result":["ours/190186_ours.png","ce/190186_ce.png","gl/190186_gl.png"],"rt":8707,"trial_type":"image-rank","trial_index":49,"time_elapsed":364257,"internal_node_id":"0.0-49.0"},{"src":["gl/153257_gl.png","ours/153257_ours.png","ce/153257_ce.png"],"rank_data":[2,0,1],"rank_result":["ours/153257_ours.png","ce/153257_ce.png","gl/153257_gl.png"],"rt":4628,"trial_type":"image-rank","trial_index":50,"time_elapsed":368889,"internal_node_id":"0.0-50.0"},{"src":["ours/060266_ours.png","gl/060266_gl.png","ce/060266_ce.png"],"rank_data":[0,2,1],"rank_result":["ours/060266_ours.png","ce/060266_ce.png","gl/060266_gl.png"],"rt":4108,"trial_type":"image-rank","trial_index":51,"time_elapsed":372999,"internal_node_id":"0.0-51.0"},{"src":["ours/086240_ours.png","ce/086240_ce.png","gl/086240_gl.png"],"rank_data":[0,1,2],"rank_result":["ours/086240_ours.png","ce/086240_ce.png","gl/086240_gl.png"],"rt":4321,"trial_type":"image-rank","trial_index":52,"time_elapsed":377321,"internal_node_id":"0.0-52.0"},{"src":["gl/069583_gl.png","ce/069583_ce.png","ours/069583_ours.png"],"rank_data":[2,0,1],"rank_result":["ce/069583_ce.png","ours/069583_ours.png","gl/069583_gl.png"],"rt":8548,"trial_type":"image-rank","trial_index":53,"time_elapsed":385870,"internal_node_id":"0.0-53.0"},{"src":["gl/067730_gl.png","ours/067730_ours.png","ce/067730_ce.png"],"rank_data":[2,0,1],"rank_result":["ours/067730_ours.png","ce/067730_ce.png","gl/067730_gl.png"],"rt":9530,"trial_type":"image-rank","trial_index":54,"time_elapsed":395402,"internal_node_id":"0.0-54.0"},{"src":["ce/028867_ce.png","gl/028867_gl.png","ours/028867_ours.png"],"rank_data":[1,2,0],"rank_result":["ours/028867_ours.png","ce/028867_ce.png","gl/028867_gl.png"],"rt":6106,"trial_type":"image-rank","trial_index":55,"time_elapsed":401511,"internal_node_id":"0.0-55.0"},{"src":["gl/202543_gl.png","ce/202543_ce.png","ours/202543_ours.png"],"rank_data":[2,1,0],"rank_result":["ours/202543_ours.png","ce/202543_ce.png","gl/202543_gl.png"],"rt":8338,"trial_type":"image-rank","trial_index":56,"time_elapsed":409852,"internal_node_id":"0.0-56.0"},{"src":["ce/000825_ce.png","ours/000825_ours.png","gl/000825_gl.png"],"rank_data":[1,0,2],"rank_result":["ours/000825_ours.png","ce/000825_ce.png","gl/000825_gl.png"],"rt":6709,"trial_type":"image-rank","trial_index":57,"time_elapsed":416563,"internal_node_id":"0.0-57.0"},{"src":["ce/196085_ce.png","ours/196085_ours.png","gl/196085_gl.png"],"rank_data":[1,0,2],"rank_result":["ours/196085_ours.png","ce/196085_ce.png","gl/196085_gl.png"],"rt":6913,"trial_type":"image-rank","trial_index":58,"time_elapsed":423478,"internal_node_id":"0.0-58.0"},{"src":["gl/016757_gl.png","ours/016757_ours.png","ce/016757_ce.png"],"rank_data":[2,0,1],"rank_result":["ours/016757_ours.png","ce/016757_ce.png","gl/016757_gl.png"],"rt":6976,"trial_type":"image-rank","trial_index":59,"time_elapsed":430457,"internal_node_id":"0.0-59.0"},{"src":["ce/167276_ce.png","ours/167276_ours.png","gl/167276_gl.png"],"rank_data":[1,0,2],"rank_result":["ours/167276_ours.png","ce/167276_ce.png","gl/167276_gl.png"],"rt":5944,"trial_type":"image-rank","trial_index":60,"time_elapsed":436403,"internal_node_id":"0.0-60.0"},{"src":["gl/149695_gl.png","ce/149695_ce.png","ours/149695_ours.png"],"rank_data":[2,1,0],"rank_result":["ours/149695_ours.png","ce/149695_ce.png","gl/149695_gl.png"],"rt":4224,"trial_type":"image-rank","trial_index":61,"time_elapsed":440629,"internal_node_id":"0.0-61.0"},{"src":["gl/122939_gl.png","ce/122939_ce.png","ours/122939_ours.png"],"rank_data":[2,1,0],"rank_result":["ours/122939_ours.png","ce/122939_ce.png","gl/122939_gl.png"],"rt":10287,"trial_type":"image-rank","trial_index":62,"time_elapsed":450916,"internal_node_id":"0.0-62.0"},{"src":["ours/085274_ours.png","gl/085274_gl.png","ce/085274_ce.png"],"rank_data":[0,1,2],"rank_result":["ours/085274_ours.png","gl/085274_gl.png","ce/085274_ce.png"],"rt":4496,"trial_type":"image-rank","trial_index":63,"time_elapsed":455415,"internal_node_id":"0.0-63.0"},{"src":["gl/038942_gl.png","ce/038942_ce.png","ours/038942_ours.png"],"rank_data":[1,2,0],"rank_result":["ours/038942_ours.png","gl/038942_gl.png","ce/038942_ce.png"],"rt":5110,"trial_type":"image-rank","trial_index":64,"time_elapsed":460529,"internal_node_id":"0.0-64.0"},{"src":["ours/132716_ours.png","gl/132716_gl.png","ce/132716_ce.png"],"rank_data":[0,2,1],"rank_result":["ours/132716_ours.png","ce/132716_ce.png","gl/132716_gl.png"],"rt":6479,"trial_type":"image-rank","trial_index":65,"time_elapsed":467010,"internal_node_id":"0.0-65.0"},{"src":["gl/197999_gl.png","ours/197999_ours.png","ce/197999_ce.png"],"rank_data":[2,0,1],"rank_result":["ours/197999_ours.png","ce/197999_ce.png","gl/197999_gl.png"],"rt":5234,"trial_type":"image-rank","trial_index":66,"time_elapsed":472247,"internal_node_id":"0.0-66.0"},{"src":["ce/124616_ce.png","ours/124616_ours.png","gl/124616_gl.png"],"rank_data":[1,0,2],"rank_result":["ours/124616_ours.png","ce/124616_ce.png","gl/124616_gl.png"],"rt":5919,"trial_type":"image-rank","trial_index":67,"time_elapsed":478168,"internal_node_id":"0.0-67.0"},{"src":["gl/162139_gl.png","ce/162139_ce.png","ours/162139_ours.png"],"rank_data":[1,2,0],"rank_result":["ours/162139_ours.png","gl/162139_gl.png","ce/162139_ce.png"],"rt":7715,"trial_type":"image-rank","trial_index":68,"time_elapsed":485885,"internal_node_id":"0.0-68.0"},{"src":["ce/125254_ce.png","ours/125254_ours.png","gl/125254_gl.png"],"rank_data":[1,0,2],"rank_result":["ours/125254_ours.png","ce/125254_ce.png","gl/125254_gl.png"],"rt":7265,"trial_type":"image-rank","trial_index":69,"time_elapsed":493154,"internal_node_id":"0.0-69.0"},{"src":["gl/143036_gl.png","ours/143036_ours.png","ce/143036_ce.png"],"rank_data":[2,1,0],"rank_result":["ce/143036_ce.png","ours/143036_ours.png","gl/143036_gl.png"],"rt":5778,"trial_type":"image-rank","trial_index":70,"time_elapsed":498934,"internal_node_id":"0.0-70.0"},{"src":["ours/069235_ours.png","ce/069235_ce.png","gl/069235_gl.png"],"rank_data":[0,1,2],"rank_result":["ours/069235_ours.png","ce/069235_ce.png","gl/069235_gl.png"],"rt":4747,"trial_type":"image-rank","trial_index":71,"time_elapsed":503681,"internal_node_id":"0.0-71.0"},{"src":["ours/049663_ours.png","ce/049663_ce.png","gl/049663_gl.png"],"rank_data":[0,1,2],"rank_result":["ours/049663_ours.png","ce/049663_ce.png","gl/049663_gl.png"],"rt":4072,"trial_type":"image-rank","trial_index":72,"time_elapsed":507755,"internal_node_id":"0.0-72.0"},{"src":["ours/109494_ours.png","gl/109494_gl.png","ce/109494_ce.png"],"rank_data":[0,2,1],"rank_result":["ours/109494_ours.png","ce/109494_ce.png","gl/109494_gl.png"],"rt":3376,"trial_type":"image-rank","trial_index":73,"time_elapsed":511132,"internal_node_id":"0.0-73.0"},{"src":["ours/055800_ours.png","gl/055800_gl.png","ce/055800_ce.png"],"rank_data":[0,1,2],"rank_result":["ours/055800_ours.png","gl/055800_gl.png","ce/055800_ce.png"],"rt":4076,"trial_type":"image-rank","trial_index":74,"time_elapsed":515209,"internal_node_id":"0.0-74.0"},{"src":["ce/143751_ce.png","gl/143751_gl.png","ours/143751_ours.png"],"rank_data":[1,2,0],"rank_result":["ours/143751_ours.png","ce/143751_ce.png","gl/143751_gl.png"],"rt":7860,"trial_type":"image-rank","trial_index":75,"time_elapsed":523072,"internal_node_id":"0.0-75.0"},{"src":["ce/183886_ce.png","ours/183886_ours.png","gl/183886_gl.png"],"rank_data":[2,0,1],"rank_result":["ours/183886_ours.png","gl/183886_gl.png","ce/183886_ce.png"],"rt":5612,"trial_type":"image-rank","trial_index":76,"time_elapsed":528686,"internal_node_id":"0.0-76.0"},{"src":["ours/086480_ours.png","gl/086480_gl.png","ce/086480_ce.png"],"rank_data":[0,1,2],"rank_result":["ours/086480_ours.png","gl/086480_gl.png","ce/086480_ce.png"],"rt":3830,"trial_type":"image-rank","trial_index":77,"time_elapsed":532519,"internal_node_id":"0.0-77.0"},{"src":["ours/031244_ours.png","gl/031244_gl.png","ce/031244_ce.png"],"rank_data":[1,2,0],"rank_result":["ce/031244_ce.png","ours/031244_ours.png","gl/031244_gl.png"],"rt":4030,"trial_type":"image-rank","trial_index":78,"time_elapsed":536551,"internal_node_id":"0.0-78.0"},{"src":["gl/149057_gl.png","ce/149057_ce.png","ours/149057_ours.png"],"rank_data":[1,2,0],"rank_result":["ours/149057_ours.png","gl/149057_gl.png","ce/149057_ce.png"],"rt":4891,"trial_type":"image-rank","trial_index":79,"time_elapsed":541447,"internal_node_id":"0.0-79.0"},{"src":["gl/051768_gl.png","ours/051768_ours.png","ce/051768_ce.png"],"rank_data":[2,0,1],"rank_result":["ours/051768_ours.png","ce/051768_ce.png","gl/051768_gl.png"],"rt":5030,"trial_type":"image-rank","trial_index":80,"time_elapsed":546479,"internal_node_id":"0.0-80.0"},{"src":["ce/105536_ce.png","gl/105536_gl.png","ours/105536_ours.png"],"rank_data":[2,1,0],"rank_result":["ours/105536_ours.png","gl/105536_gl.png","ce/105536_ce.png"],"rt":10495,"trial_type":"image-rank","trial_index":81,"time_elapsed":556976,"internal_node_id":"0.0-81.0"},{"src":["ce/160358_ce.png","ours/160358_ours.png","gl/160358_gl.png"],"rank_data":[1,0,2],"rank_result":["ours/160358_ours.png","ce/160358_ce.png","gl/160358_gl.png"],"rt":5213,"trial_type":"image-rank","trial_index":82,"time_elapsed":562191,"internal_node_id":"0.0-82.0"},{"src":["gl/123654_gl.png","ce/123654_ce.png","ours/123654_ours.png"],"rank_data":[1,2,0],"rank_result":["ours/123654_ours.png","gl/123654_gl.png","ce/123654_ce.png"],"rt":3877,"trial_type":"image-rank","trial_index":83,"time_elapsed":566070,"internal_node_id":"0.0-83.0"},{"src":["gl/093930_gl.png","ce/093930_ce.png","ours/093930_ours.png"],"rank_data":[1,2,0],"rank_result":["ours/093930_ours.png","gl/093930_gl.png","ce/093930_ce.png"],"rt":5423,"trial_type":"image-rank","trial_index":84,"time_elapsed":571493,"internal_node_id":"0.0-84.0"},{"src":["ce/046737_ce.png","ours/046737_ours.png","gl/046737_gl.png"],"rank_data":[0,1,2],"rank_result":["ce/046737_ce.png","ours/046737_ours.png","gl/046737_gl.png"],"rt":3922,"trial_type":"image-rank","trial_index":85,"time_elapsed":575417,"internal_node_id":"0.0-85.0"},{"src":["ce/146238_ce.png","gl/146238_gl.png","ours/146238_ours.png"],"rank_data":[1,2,0],"rank_result":["ours/146238_ours.png","ce/146238_ce.png","gl/146238_gl.png"],"rt":4492,"trial_type":"image-rank","trial_index":86,"time_elapsed":579911,"internal_node_id":"0.0-86.0"},{"src":["gl/146190_gl.png","ce/146190_ce.png","ours/146190_ours.png"],"rank_data":[2,1,0],"rank_result":["ours/146190_ours.png","ce/146190_ce.png","gl/146190_gl.png"],"rt":7107,"trial_type":"image-rank","trial_index":87,"time_elapsed":587021,"internal_node_id":"0.0-87.0"},{"src":["gl/195871_gl.png","ce/195871_ce.png","ours/195871_ours.png"],"rank_data":[1,2,0],"rank_result":["ours/195871_ours.png","gl/195871_gl.png","ce/195871_ce.png"],"rt":3326,"trial_type":"image-rank","trial_index":88,"time_elapsed":590350,"internal_node_id":"0.0-88.0"},{"src":["ce/120393_ce.png","gl/120393_gl.png","ours/120393_ours.png"],"rank_data":[1,2,0],"rank_result":["ours/120393_ours.png","ce/120393_ce.png","gl/120393_gl.png"],"rt":3391,"trial_type":"image-rank","trial_index":89,"time_elapsed":593744,"internal_node_id":"0.0-89.0"},{"src":["ce/170535_ce.png","ours/170535_ours.png","gl/170535_gl.png"],"rank_data":[2,0,1],"rank_result":["ours/170535_ours.png","gl/170535_gl.png","ce/170535_ce.png"],"rt":5654,"trial_type":"image-rank","trial_index":90,"time_elapsed":599402,"internal_node_id":"0.0-90.0"},{"src":["gl/015527_gl.png","ours/015527_ours.png","ce/015527_ce.png"],"rank_data":[2,0,1],"rank_result":["ours/015527_ours.png","ce/015527_ce.png","gl/015527_gl.png"],"rt":8001,"trial_type":"image-rank","trial_index":91,"time_elapsed":607407,"internal_node_id":"0.0-91.0"},{"src":["ours/125296_ours.png","ce/125296_ce.png","gl/125296_gl.png"],"rank_data":[1,0,2],"rank_result":["ce/125296_ce.png","ours/125296_ours.png","gl/125296_gl.png"],"rt":5895,"trial_type":"image-rank","trial_index":92,"time_elapsed":613304,"internal_node_id":"0.0-92.0"},{"src":["ours/170333_ours.png","gl/170333_gl.png","ce/170333_ce.png"],"rank_data":[0,2,1],"rank_result":["ours/170333_ours.png","ce/170333_ce.png","gl/170333_gl.png"],"rt":6337,"trial_type":"image-rank","trial_index":93,"time_elapsed":619646,"internal_node_id":"0.0-93.0"},{"src":["ce/105276_ce.png","ours/105276_ours.png","gl/105276_gl.png"],"rank_data":[1,0,2],"rank_result":["ours/105276_ours.png","ce/105276_ce.png","gl/105276_gl.png"],"rt":5508,"trial_type":"image-rank","trial_index":94,"time_elapsed":625156,"internal_node_id":"0.0-94.0"},{"src":["gl/081605_gl.png","ce/081605_ce.png","ours/081605_ours.png"],"rank_data":[2,1,0],"rank_result":["ours/081605_ours.png","ce/081605_ce.png","gl/081605_gl.png"],"rt":6242,"trial_type":"image-rank","trial_index":95,"time_elapsed":631400,"internal_node_id":"0.0-95.0"},{"src":["gl/147039_gl.png","ours/147039_ours.png","ce/147039_ce.png"],"rank_data":[2,0,1],"rank_result":["ours/147039_ours.png","ce/147039_ce.png","gl/147039_gl.png"],"rt":4121,"trial_type":"image-rank","trial_index":96,"time_elapsed":635523,"internal_node_id":"0.0-96.0"},{"src":["gl/087746_gl.png","ce/087746_ce.png","ours/087746_ours.png"],"rank_data":[2,0,1],"rank_result":["ce/087746_ce.png","ours/087746_ours.png","gl/087746_gl.png"],"rt":4010,"trial_type":"image-rank","trial_index":97,"time_elapsed":639534,"internal_node_id":"0.0-97.0"},{"src":["gl/019131_gl.png","ce/019131_ce.png","ours/019131_ours.png"],"rank_data":[2,1,0],"rank_result":["ours/019131_ours.png","ce/019131_ce.png","gl/019131_gl.png"],"rt":4690,"trial_type":"image-rank","trial_index":98,"time_elapsed":644227,"internal_node_id":"0.0-98.0"},{"src":["gl/125839_gl.png","ours/125839_ours.png","ce/125839_ce.png"],"rank_data":[2,0,1],"rank_result":["ours/125839_ours.png","ce/125839_ce.png","gl/125839_gl.png"],"rt":5433,"trial_type":"image-rank","trial_index":99,"time_elapsed":649662,"internal_node_id":"0.0-99.0"},{"src":["ce/104221_ce.png","gl/104221_gl.png","ours/104221_ours.png"],"rank_data":[1,2,0],"rank_result":["ours/104221_ours.png","ce/104221_ce.png","gl/104221_gl.png"],"rt":3713,"trial_type":"image-rank","trial_index":100,"time_elapsed":653379,"internal_node_id":"0.0-100.0"},{"src":["gl/056117_gl.png","ours/056117_ours.png","ce/056117_ce.png"],"rank_data":[2,1,0],"rank_result":["ce/056117_ce.png","ours/056117_ours.png","gl/056117_gl.png"],"rt":7948,"trial_type":"image-rank","trial_index":101,"time_elapsed":661330,"internal_node_id":"0.0-101.0"},{"src":["gl/044119_gl.png","ours/044119_ours.png","ce/044119_ce.png"],"rank_data":[1,0,2],"rank_result":["ours/044119_ours.png","gl/044119_gl.png","ce/044119_ce.png"],"rt":4831,"trial_type":"image-rank","trial_index":102,"time_elapsed":666164,"internal_node_id":"0.0-102.0"}]