[
  {
    "rt": 23745,
    "stimulus": "Welcome to the experiment. Press any key to begin.",
    "key_press": 13,
    "trial_type": "html-keyboard-response",
    "trial_index": 0,
    "time_elapsed": 23747,
    "internal_node_id": "0.0-0.0"
  },
  {
    "rt": 19275,
    "stimulus": "<p>In this experiment, three images of people will appear in the center of the screen.</p><p>Your task is to rank these images based on how <strong>real</strong> you think they are.<p>The ranking level is between 1 to 3, with <strong>1</strong> representing the most real one and <strong>3</strong> the fakest one.</p><p>The time to rank is not limited. When you finish ranking, click the <strong>Continue</strong> button to continue.</p>",
    "key_press": 13,
    "trial_type": "html-keyboard-response",
    "trial_index": 1,
    "time_elapsed": 43024,
    "internal_node_id": "0.0-1.0"
  },
  {
    "rt": null,
    "stimulus": "<div style=\"font-size:60px;\"></div>",
    "key_press": null,
    "label": "fixation",
    "trial_type": "html-keyboard-response",
    "trial_index": 2,
    "time_elapsed": 44030,
    "internal_node_id": "0.0-2.0"
  },
  {
    "src": [
      "ours/013607_ours.png",
      "gl/013607_gl.png",
      "ce/013607_ce.png"
    ],
    "rank_data": [
      0,
      2,
      1
    ],
    "rank_result": [
      "ours/013607_ours.png",
      "ce/013607_ce.png",
      "gl/013607_gl.png"
    ],
    "rt": 11594,
    "trial_type": "image-rank",
    "trial_index": 3,
    "time_elapsed": 55625,
    "internal_node_id": "0.0-3.0"
  },
  {
    "src": [
      "gl/046861_gl.png",
      "ours/046861_ours.png",
      "ce/046861_ce.png"
    ],
    "rank_data": [
      1,
      0,
      2
    ],
    "rank_result": [
      "ours/046861_ours.png",
      "gl/046861_gl.png",
      "ce/046861_ce.png"
    ],
    "rt": 12869,
    "trial_type": "image-rank",
    "trial_index": 4,
    "time_elapsed": 68495,
    "internal_node_id": "0.0-4.0"
  },
  {
    "src": [
      "ours/010838_ours.png",
      "ce/010838_ce.png",
      "gl/010838_gl.png"
    ],
    "rank_data": [
      0,
      1,
      2
    ],
    "rank_result": [
      "ours/010838_ours.png",
      "ce/010838_ce.png",
      "gl/010838_gl.png"
    ],
    "rt": 16514,
    "trial_type": "image-rank",
    "trial_index": 5,
    "time_elapsed": 85009,
    "internal_node_id": "0.0-5.0"
  },
  {
    "src": [
      "gl/077362_gl.png",
      "ours/077362_ours.png",
      "ce/077362_ce.png"
    ],
    "rank_data": [
      2,
      1,
      0
    ],
    "rank_result": [
      "ce/077362_ce.png",
      "ours/077362_ours.png",
      "gl/077362_gl.png"
    ],
    "rt": 7863,
    "trial_type": "image-rank",
    "trial_index": 6,
    "time_elapsed": 92874,
    "internal_node_id": "0.0-6.0"
  },
  {
    "src": [
      "ce/064771_ce.png",
      "ours/064771_ours.png",
      "gl/064771_gl.png"
    ],
    "rank_data": [
      1,
      0,
      2
    ],
    "rank_result": [
      "ours/064771_ours.png",
      "ce/064771_ce.png",
      "gl/064771_gl.png"
    ],
    "rt": 8327,
    "trial_type": "image-rank",
    "trial_index": 7,
    "time_elapsed": 101202,
    "internal_node_id": "0.0-7.0"
  },
  {
    "src": [
      "ce/120880_ce.png",
      "ours/120880_ours.png",
      "gl/120880_gl.png"
    ],
    "rank_data": [
      1,
      0,
      2
    ],
    "rank_result": [
      "ours/120880_ours.png",
      "ce/120880_ce.png",
      "gl/120880_gl.png"
    ],
    "rt": 9272,
    "trial_type": "image-rank",
    "trial_index": 8,
    "time_elapsed": 110474,
    "internal_node_id": "0.0-8.0"
  },
  {
    "src": [
      "ours/114596_ours.png",
      "ce/114596_ce.png",
      "gl/114596_gl.png"
    ],
    "rank_data": [
      1,
      0,
      2
    ],
    "rank_result": [
      "ce/114596_ce.png",
      "ours/114596_ours.png",
      "gl/114596_gl.png"
    ],
    "rt": 12847,
    "trial_type": "image-rank",
    "trial_index": 9,
    "time_elapsed": 123322,
    "internal_node_id": "0.0-9.0"
  },
  {
    "src": [
      "gl/200502_gl.png",
      "ours/200502_ours.png",
      "ce/200502_ce.png"
    ],
    "rank_data": [
      1,
      0,
      2
    ],
    "rank_result": [
      "ours/200502_ours.png",
      "gl/200502_gl.png",
      "ce/200502_ce.png"
    ],
    "rt": 21214,
    "trial_type": "image-rank",
    "trial_index": 10,
    "time_elapsed": 144537,
    "internal_node_id": "0.0-10.0"
  },
  {
    "src": [
      "gl/092264_gl.png",
      "ce/092264_ce.png",
      "ours/092264_ours.png"
    ],
    "rank_data": [
      2,
      1,
      0
    ],
    "rank_result": [
      "ours/092264_ours.png",
      "ce/092264_ce.png",
      "gl/092264_gl.png"
    ],
    "rt": 9885,
    "trial_type": "image-rank",
    "trial_index": 11,
    "time_elapsed": 154422,
    "internal_node_id": "0.0-11.0"
  },
  {
    "src": [
      "gl/030262_gl.png",
      "ours/030262_ours.png",
      "ce/030262_ce.png"
    ],
    "rank_data": [
      1,
      0,
      2
    ],
    "rank_result": [
      "ours/030262_ours.png",
      "gl/030262_gl.png",
      "ce/030262_ce.png"
    ],
    "rt": 10535,
    "trial_type": "image-rank",
    "trial_index": 12,
    "time_elapsed": 164957,
    "internal_node_id": "0.0-12.0"
  },
  {
    "src": [
      "ours/058506_ours.png",
      "gl/058506_gl.png",
      "ce/058506_ce.png"
    ],
    "rank_data": [
      0,
      2,
      1
    ],
    "rank_result": [
      "ours/058506_ours.png",
      "ce/058506_ce.png",
      "gl/058506_gl.png"
    ],
    "rt": 14022,
    "trial_type": "image-rank",
    "trial_index": 13,
    "time_elapsed": 178981,
    "internal_node_id": "0.0-13.0"
  },
  {
    "src": [
      "gl/147338_gl.png",
      "ce/147338_ce.png",
      "ours/147338_ours.png"
    ],
    "rank_data": [
      1,
      2,
      0
    ],
    "rank_result": [
      "ours/147338_ours.png",
      "gl/147338_gl.png",
      "ce/147338_ce.png"
    ],
    "rt": 19662,
    "trial_type": "image-rank",
    "trial_index": 14,
    "time_elapsed": 198644,
    "internal_node_id": "0.0-14.0"
  },
  {
    "src": [
      "ours/002048_ours.png",
      "ce/002048_ce.png",
      "gl/002048_gl.png"
    ],
    "rank_data": [
      0,
      1,
      2
    ],
    "rank_result": [
      "ours/002048_ours.png",
      "ce/002048_ce.png",
      "gl/002048_gl.png"
    ],
    "rt": 15043,
    "trial_type": "image-rank",
    "trial_index": 15,
    "time_elapsed": 213688,
    "internal_node_id": "0.0-15.0"
  },
  {
    "src": [
      "ours/006866_ours.png",
      "ce/006866_ce.png",
      "gl/006866_gl.png"
    ],
    "rank_data": [
      0,
      1,
      2
    ],
    "rank_result": [
      "ours/006866_ours.png",
      "ce/006866_ce.png",
      "gl/006866_gl.png"
    ],
    "rt": 19367,
    "trial_type": "image-rank",
    "trial_index": 16,
    "time_elapsed": 233056,
    "internal_node_id": "0.0-16.0"
  },
  {
    "src": [
      "gl/066703_gl.png",
      "ce/066703_ce.png",
      "ours/066703_ours.png"
    ],
    "rank_data": [
      1,
      2,
      0
    ],
    "rank_result": [
      "ours/066703_ours.png",
      "gl/066703_gl.png",
      "ce/066703_ce.png"
    ],
    "rt": 21156,
    "trial_type": "image-rank",
    "trial_index": 17,
    "time_elapsed": 254213,
    "internal_node_id": "0.0-17.0"
  },
  {
    "src": [
      "ours/104831_ours.png",
      "ce/104831_ce.png",
      "gl/104831_gl.png"
    ],
    "rank_data": [
      0,
      2,
      1
    ],
    "rank_result": [
      "ours/104831_ours.png",
      "gl/104831_gl.png",
      "ce/104831_ce.png"
    ],
    "rt": 11290,
    "trial_type": "image-rank",
    "trial_index": 18,
    "time_elapsed": 265504,
    "internal_node_id": "0.0-18.0"
  },
  {
    "src": [
      "ce/201978_ce.png",
      "gl/201978_gl.png",
      "ours/201978_ours.png"
    ],
    "rank_data": [
      1,
      2,
      0
    ],
    "rank_result": [
      "ours/201978_ours.png",
      "ce/201978_ce.png",
      "gl/201978_gl.png"
    ],
    "rt": 8455,
    "trial_type": "image-rank",
    "trial_index": 19,
    "time_elapsed": 273959,
    "internal_node_id": "0.0-19.0"
  },
  {
    "src": [
      "gl/177754_gl.png",
      "ce/177754_ce.png",
      "ours/177754_ours.png"
    ],
    "rank_data": [
      0,
      2,
      1
    ],
    "rank_result": [
      "gl/177754_gl.png",
      "ours/177754_ours.png",
      "ce/177754_ce.png"
    ],
    "rt": 13122,
    "trial_type": "image-rank",
    "trial_index": 20,
    "time_elapsed": 287082,
    "internal_node_id": "0.0-20.0"
  },
  {
    "src": [
      "ce/167802_ce.png",
      "gl/167802_gl.png",
      "ours/167802_ours.png"
    ],
    "rank_data": [
      0,
      2,
      1
    ],
    "rank_result": [
      "ce/167802_ce.png",
      "ours/167802_ours.png",
      "gl/167802_gl.png"
    ],
    "rt": 48372,
    "trial_type": "image-rank",
    "trial_index": 21,
    "time_elapsed": 335454,
    "internal_node_id": "0.0-21.0"
  },
  {
    "src": [
      "ce/187342_ce.png",
      "gl/187342_gl.png",
      "ours/187342_ours.png"
    ],
    "rank_data": [
      1,
      2,
      0
    ],
    "rank_result": [
      "ours/187342_ours.png",
      "ce/187342_ce.png",
      "gl/187342_gl.png"
    ],
    "rt": 15664,
    "trial_type": "image-rank",
    "trial_index": 22,
    "time_elapsed": 351120,
    "internal_node_id": "0.0-22.0"
  },
  {
    "src": [
      "ce/016692_ce.png",
      "gl/016692_gl.png",
      "ours/016692_ours.png"
    ],
    "rank_data": [
      2,
      1,
      0
    ],
    "rank_result": [
      "ours/016692_ours.png",
      "gl/016692_gl.png",
      "ce/016692_ce.png"
    ],
    "rt": 6100,
    "trial_type": "image-rank",
    "trial_index": 23,
    "time_elapsed": 357220,
    "internal_node_id": "0.0-23.0"
  },
  {
    "src": [
      "gl/019708_gl.png",
      "ce/019708_ce.png",
      "ours/019708_ours.png"
    ],
    "rank_data": [
      1,
      2,
      0
    ],
    "rank_result": [
      "ours/019708_ours.png",
      "gl/019708_gl.png",
      "ce/019708_ce.png"
    ],
    "rt": 11736,
    "trial_type": "image-rank",
    "trial_index": 24,
    "time_elapsed": 368956,
    "internal_node_id": "0.0-24.0"
  },
  {
    "src": [
      "ce/066558_ce.png",
      "ours/066558_ours.png",
      "gl/066558_gl.png"
    ],
    "rank_data": [
      1,
      0,
      2
    ],
    "rank_result": [
      "ours/066558_ours.png",
      "ce/066558_ce.png",
      "gl/066558_gl.png"
    ],
    "rt": 10136,
    "trial_type": "image-rank",
    "trial_index": 25,
    "time_elapsed": 379092,
    "internal_node_id": "0.0-25.0"
  },
  {
    "src": [
      "ours/003105_ours.png",
      "gl/003105_gl.png",
      "ce/003105_ce.png"
    ],
    "rank_data": [
      0,
      1,
      2
    ],
    "rank_result": [
      "ours/003105_ours.png",
      "gl/003105_gl.png",
      "ce/003105_ce.png"
    ],
    "rt": 11198,
    "trial_type": "image-rank",
    "trial_index": 26,
    "time_elapsed": 390291,
    "internal_node_id": "0.0-26.0"
  },
  {
    "src": [
      "gl/019773_gl.png",
      "ours/019773_ours.png",
      "ce/019773_ce.png"
    ],
    "rank_data": [
      2,
      0,
      1
    ],
    "rank_result": [
      "ours/019773_ours.png",
      "ce/019773_ce.png",
      "gl/019773_gl.png"
    ],
    "rt": 7823,
    "trial_type": "image-rank",
    "trial_index": 27,
    "time_elapsed": 398114,
    "internal_node_id": "0.0-27.0"
  },
  {
    "src": [
      "gl/070276_gl.png",
      "ce/070276_ce.png",
      "ours/070276_ours.png"
    ],
    "rank_data": [
      1,
      2,
      0
    ],
    "rank_result": [
      "ours/070276_ours.png",
      "gl/070276_gl.png",
      "ce/070276_ce.png"
    ],
    "rt": 13011,
    "trial_type": "image-rank",
    "trial_index": 28,
    "time_elapsed": 411126,
    "internal_node_id": "0.0-28.0"
  },
  {
    "src": [
      "ce/189515_ce.png",
      "gl/189515_gl.png",
      "ours/189515_ours.png"
    ],
    "rank_data": [
      1,
      2,
      0
    ],
    "rank_result": [
      "ours/189515_ours.png",
      "ce/189515_ce.png",
      "gl/189515_gl.png"
    ],
    "rt": 11915,
    "trial_type": "image-rank",
    "trial_index": 29,
    "time_elapsed": 423042,
    "internal_node_id": "0.0-29.0"
  },
  {
    "src": [
      "ours/005158_ours.png",
      "ce/005158_ce.png",
      "gl/005158_gl.png"
    ],
    "rank_data": [
      0,
      1,
      2
    ],
    "rank_result": [
      "ours/005158_ours.png",
      "ce/005158_ce.png",
      "gl/005158_gl.png"
    ],
    "rt": 9406,
    "trial_type": "image-rank",
    "trial_index": 30,
    "time_elapsed": 432448,
    "internal_node_id": "0.0-30.0"
  },
  {
    "src": [
      "gl/145916_gl.png",
      "ce/145916_ce.png",
      "ours/145916_ours.png"
    ],
    "rank_data": [
      2,
      1,
      0
    ],
    "rank_result": [
      "ours/145916_ours.png",
      "ce/145916_ce.png",
      "gl/145916_gl.png"
    ],
    "rt": 11323,
    "trial_type": "image-rank",
    "trial_index": 31,
    "time_elapsed": 443772,
    "internal_node_id": "0.0-31.0"
  },
  {
    "src": [
      "ce/068497_ce.png",
      "gl/068497_gl.png",
      "ours/068497_ours.png"
    ],
    "rank_data": [
      1,
      2,
      0
    ],
    "rank_result": [
      "ours/068497_ours.png",
      "ce/068497_ce.png",
      "gl/068497_gl.png"
    ],
    "rt": 6579,
    "trial_type": "image-rank",
    "trial_index": 32,
    "time_elapsed": 450352,
    "internal_node_id": "0.0-32.0"
  },
  {
    "src": [
      "ce/099133_ce.png",
      "gl/099133_gl.png",
      "ours/099133_ours.png"
    ],
    "rank_data": [
      1,
      2,
      0
    ],
    "rank_result": [
      "ours/099133_ours.png",
      "ce/099133_ce.png",
      "gl/099133_gl.png"
    ],
    "rt": 8623,
    "trial_type": "image-rank",
    "trial_index": 33,
    "time_elapsed": 458976,
    "internal_node_id": "0.0-33.0"
  },
  {
    "src": [
      "ours/191213_ours.png",
      "gl/191213_gl.png",
      "ce/191213_ce.png"
    ],
    "rank_data": [
      0,
      1,
      2
    ],
    "rank_result": [
      "ours/191213_ours.png",
      "gl/191213_gl.png",
      "ce/191213_ce.png"
    ],
    "rt": 20571,
    "trial_type": "image-rank",
    "trial_index": 34,
    "time_elapsed": 479548,
    "internal_node_id": "0.0-34.0"
  },
  {
    "src": [
      "ce/150174_ce.png",
      "ours/150174_ours.png",
      "gl/150174_gl.png"
    ],
    "rank_data": [
      1,
      0,
      2
    ],
    "rank_result": [
      "ours/150174_ours.png",
      "ce/150174_ce.png",
      "gl/150174_gl.png"
    ],
    "rt": 14590,
    "trial_type": "image-rank",
    "trial_index": 35,
    "time_elapsed": 494138,
    "internal_node_id": "0.0-35.0"
  },
  {
    "src": [
      "ours/150868_ours.png",
      "ce/150868_ce.png",
      "gl/150868_gl.png"
    ],
    "rank_data": [
      0,
      1,
      2
    ],
    "rank_result": [
      "ours/150868_ours.png",
      "ce/150868_ce.png",
      "gl/150868_gl.png"
    ],
    "rt": 6354,
    "trial_type": "image-rank",
    "trial_index": 36,
    "time_elapsed": 500493,
    "internal_node_id": "0.0-36.0"
  },
  {
    "src": [
      "ours/151937_ours.png",
      "gl/151937_gl.png",
      "ce/151937_ce.png"
    ],
    "rank_data": [
      1,
      0,
      2
    ],
    "rank_result": [
      "gl/151937_gl.png",
      "ours/151937_ours.png",
      "ce/151937_ce.png"
    ],
    "rt": 20719,
    "trial_type": "image-rank",
    "trial_index": 37,
    "time_elapsed": 521213,
    "internal_node_id": "0.0-37.0"
  },
  {
    "src": [
      "ours/178275_ours.png",
      "gl/178275_gl.png",
      "ce/178275_ce.png"
    ],
    "rank_data": [
      0,
      1,
      2
    ],
    "rank_result": [
      "ours/178275_ours.png",
      "gl/178275_gl.png",
      "ce/178275_ce.png"
    ],
    "rt": 5846,
    "trial_type": "image-rank",
    "trial_index": 38,
    "time_elapsed": 527060,
    "internal_node_id": "0.0-38.0"
  },
  {
    "src": [
      "ce/178330_ce.png",
      "ours/178330_ours.png",
      "gl/178330_gl.png"
    ],
    "rank_data": [
      2,
      0,
      1
    ],
    "rank_result": [
      "ours/178330_ours.png",
      "gl/178330_gl.png",
      "ce/178330_ce.png"
    ],
    "rt": 7218,
    "trial_type": "image-rank",
    "trial_index": 39,
    "time_elapsed": 534278,
    "internal_node_id": "0.0-39.0"
  },
  {
    "src": [
      "ours/163097_ours.png",
      "gl/163097_gl.png",
      "ce/163097_ce.png"
    ],
    "rank_data": [
      0,
      2,
      1
    ],
    "rank_result": [
      "ours/163097_ours.png",
      "ce/163097_ce.png",
      "gl/163097_gl.png"
    ],
    "rt": 7751,
    "trial_type": "image-rank",
    "trial_index": 40,
    "time_elapsed": 542030,
    "internal_node_id": "0.0-40.0"
  },
  {
    "src": [
      "ours/169638_ours.png",
      "gl/169638_gl.png",
      "ce/169638_ce.png"
    ],
    "rank_data": [
      0,
      2,
      1
    ],
    "rank_result": [
      "ours/169638_ours.png",
      "ce/169638_ce.png",
      "gl/169638_gl.png"
    ],
    "rt": 7793,
    "trial_type": "image-rank",
    "trial_index": 41,
    "time_elapsed": 549823,
    "internal_node_id": "0.0-41.0"
  },
  {
    "src": [
      "ce/120541_ce.png",
      "ours/120541_ours.png",
      "gl/120541_gl.png"
    ],
    "rank_data": [
      0,
      2,
      1
    ],
    "rank_result": [
      "ce/120541_ce.png",
      "gl/120541_gl.png",
      "ours/120541_ours.png"
    ],
    "rt": 5881,
    "trial_type": "image-rank",
    "trial_index": 42,
    "time_elapsed": 555705,
    "internal_node_id": "0.0-42.0"
  },
  {
    "src": [
      "gl/010636_gl.png",
      "ours/010636_ours.png",
      "ce/010636_ce.png"
    ],
    "rank_data": [
      1,
      0,
      2
    ],
    "rank_result": [
      "ours/010636_ours.png",
      "gl/010636_gl.png",
      "ce/010636_ce.png"
    ],
    "rt": 6211,
    "trial_type": "image-rank",
    "trial_index": 43,
    "time_elapsed": 561917,
    "internal_node_id": "0.0-43.0"
  },
  {
    "src": [
      "ce/079310_ce.png",
      "gl/079310_gl.png",
      "ours/079310_ours.png"
    ],
    "rank_data": [
      2,
      1,
      0
    ],
    "rank_result": [
      "ours/079310_ours.png",
      "gl/079310_gl.png",
      "ce/079310_ce.png"
    ],
    "rt": 5191,
    "trial_type": "image-rank",
    "trial_index": 44,
    "time_elapsed": 567108,
    "internal_node_id": "0.0-44.0"
  },
  {
    "src": [
      "ce/069118_ce.png",
      "ours/069118_ours.png",
      "gl/069118_gl.png"
    ],
    "rank_data": [
      1,
      0,
      2
    ],
    "rank_result": [
      "ours/069118_ours.png",
      "ce/069118_ce.png",
      "gl/069118_gl.png"
    ],
    "rt": 8109,
    "trial_type": "image-rank",
    "trial_index": 45,
    "time_elapsed": 575218,
    "internal_node_id": "0.0-45.0"
  },
  {
    "src": [
      "gl/187257_gl.png",
      "ours/187257_ours.png",
      "ce/187257_ce.png"
    ],
    "rank_data": [
      2,
      0,
      1
    ],
    "rank_result": [
      "ours/187257_ours.png",
      "ce/187257_ce.png",
      "gl/187257_gl.png"
    ],
    "rt": 5594,
    "trial_type": "image-rank",
    "trial_index": 46,
    "time_elapsed": 580812,
    "internal_node_id": "0.0-46.0"
  },
  {
    "src": [
      "ours/044914_ours.png",
      "ce/044914_ce.png",
      "gl/044914_gl.png"
    ],
    "rank_data": [
      0,
      1,
      2
    ],
    "rank_result": [
      "ours/044914_ours.png",
      "ce/044914_ce.png",
      "gl/044914_gl.png"
    ],
    "rt": 7321,
    "trial_type": "image-rank",
    "trial_index": 47,
    "time_elapsed": 588133,
    "internal_node_id": "0.0-47.0"
  },
  {
    "src": [
      "ce/160867_ce.png",
      "ours/160867_ours.png",
      "gl/160867_gl.png"
    ],
    "rank_data": [
      2,
      0,
      1
    ],
    "rank_result": [
      "ours/160867_ours.png",
      "gl/160867_gl.png",
      "ce/160867_ce.png"
    ],
    "rt": 9213,
    "trial_type": "image-rank",
    "trial_index": 48,
    "time_elapsed": 597347,
    "internal_node_id": "0.0-48.0"
  },
  {
    "src": [
      "ce/143119_ce.png",
      "ours/143119_ours.png",
      "gl/143119_gl.png"
    ],
    "rank_data": [
      1,
      0,
      2
    ],
    "rank_result": [
      "ours/143119_ours.png",
      "ce/143119_ce.png",
      "gl/143119_gl.png"
    ],
    "rt": 5689,
    "trial_type": "image-rank",
    "trial_index": 49,
    "time_elapsed": 603037,
    "internal_node_id": "0.0-49.0"
  },
  {
    "src": [
      "ours/007995_ours.png",
      "gl/007995_gl.png",
      "ce/007995_ce.png"
    ],
    "rank_data": [
      0,
      2,
      1
    ],
    "rank_result": [
      "ours/007995_ours.png",
      "ce/007995_ce.png",
      "gl/007995_gl.png"
    ],
    "rt": 9169,
    "trial_type": "image-rank",
    "trial_index": 50,
    "time_elapsed": 612206,
    "internal_node_id": "0.0-50.0"
  },
  {
    "src": [
      "gl/055373_gl.png",
      "ours/055373_ours.png",
      "ce/055373_ce.png"
    ],
    "rank_data": [
      2,
      0,
      1
    ],
    "rank_result": [
      "ours/055373_ours.png",
      "ce/055373_ce.png",
      "gl/055373_gl.png"
    ],
    "rt": 7885,
    "trial_type": "image-rank",
    "trial_index": 51,
    "time_elapsed": 620092,
    "internal_node_id": "0.0-51.0"
  },
  {
    "src": [
      "ce/002331_ce.png",
      "ours/002331_ours.png",
      "gl/002331_gl.png"
    ],
    "rank_data": [
      1,
      0,
      2
    ],
    "rank_result": [
      "ours/002331_ours.png",
      "ce/002331_ce.png",
      "gl/002331_gl.png"
    ],
    "rt": 7499,
    "trial_type": "image-rank",
    "trial_index": 52,
    "time_elapsed": 627591,
    "internal_node_id": "0.0-52.0"
  },
  {
    "src": [
      "ours/162815_ours.png",
      "gl/162815_gl.png",
      "ce/162815_ce.png"
    ],
    "rank_data": [
      0,
      1,
      2
    ],
    "rank_result": [
      "ours/162815_ours.png",
      "gl/162815_gl.png",
      "ce/162815_ce.png"
    ],
    "rt": 6045,
    "trial_type": "image-rank",
    "trial_index": 53,
    "time_elapsed": 633637,
    "internal_node_id": "0.0-53.0"
  },
  {
    "src": [
      "gl/042337_gl.png",
      "ours/042337_ours.png",
      "ce/042337_ce.png"
    ],
    "rank_data": [
      1,
      0,
      2
    ],
    "rank_result": [
      "ours/042337_ours.png",
      "gl/042337_gl.png",
      "ce/042337_ce.png"
    ],
    "rt": 5105,
    "trial_type": "image-rank",
    "trial_index": 54,
    "time_elapsed": 638743,
    "internal_node_id": "0.0-54.0"
  },
  {
    "src": [
      "gl/043616_gl.png",
      "ours/043616_ours.png",
      "ce/043616_ce.png"
    ],
    "rank_data": [
      2,
      0,
      1
    ],
    "rank_result": [
      "ours/043616_ours.png",
      "ce/043616_ce.png",
      "gl/043616_gl.png"
    ],
    "rt": 10270,
    "trial_type": "image-rank",
    "trial_index": 55,
    "time_elapsed": 649013,
    "internal_node_id": "0.0-55.0"
  },
  {
    "src": [
      "ours/077318_ours.png",
      "ce/077318_ce.png",
      "gl/077318_gl.png"
    ],
    "rank_data": [
      0,
      2,
      1
    ],
    "rank_result": [
      "ours/077318_ours.png",
      "gl/077318_gl.png",
      "ce/077318_ce.png"
    ],
    "rt": 6129,
    "trial_type": "image-rank",
    "trial_index": 56,
    "time_elapsed": 655143,
    "internal_node_id": "0.0-56.0"
  },
  {
    "src": [
      "ce/045684_ce.png",
      "ours/045684_ours.png",
      "gl/045684_gl.png"
    ],
    "rank_data": [
      2,
      0,
      1
    ],
    "rank_result": [
      "ours/045684_ours.png",
      "gl/045684_gl.png",
      "ce/045684_ce.png"
    ],
    "rt": 8360,
    "trial_type": "image-rank",
    "trial_index": 57,
    "time_elapsed": 663504,
    "internal_node_id": "0.0-57.0"
  },
  {
    "src": [
      "gl/093370_gl.png",
      "ce/093370_ce.png",
      "ours/093370_ours.png"
    ],
    "rank_data": [
      2,
      0,
      1
    ],
    "rank_result": [
      "ce/093370_ce.png",
      "ours/093370_ours.png",
      "gl/093370_gl.png"
    ],
    "rt": 6317,
    "trial_type": "image-rank",
    "trial_index": 58,
    "time_elapsed": 669822,
    "internal_node_id": "0.0-58.0"
  },
  {
    "src": [
      "ce/006467_ce.png",
      "gl/006467_gl.png",
      "ours/006467_ours.png"
    ],
    "rank_data": [
      2,
      1,
      0
    ],
    "rank_result": [
      "ours/006467_ours.png",
      "gl/006467_gl.png",
      "ce/006467_ce.png"
    ],
    "rt": 5328,
    "trial_type": "image-rank",
    "trial_index": 59,
    "time_elapsed": 675151,
    "internal_node_id": "0.0-59.0"
  },
  {
    "src": [
      "ours/041133_ours.png",
      "gl/041133_gl.png",
      "ce/041133_ce.png"
    ],
    "rank_data": [
      0,
      2,
      1
    ],
    "rank_result": [
      "ours/041133_ours.png",
      "ce/041133_ce.png",
      "gl/041133_gl.png"
    ],
    "rt": 6875,
    "trial_type": "image-rank",
    "trial_index": 60,
    "time_elapsed": 682027,
    "internal_node_id": "0.0-60.0"
  },
  {
    "src": [
      "gl/198473_gl.png",
      "ce/198473_ce.png",
      "ours/198473_ours.png"
    ],
    "rank_data": [
      1,
      2,
      0
    ],
    "rank_result": [
      "ours/198473_ours.png",
      "gl/198473_gl.png",
      "ce/198473_ce.png"
    ],
    "rt": 9894,
    "trial_type": "image-rank",
    "trial_index": 61,
    "time_elapsed": 691921,
    "internal_node_id": "0.0-61.0"
  },
  {
    "src": [
      "ours/039005_ours.png",
      "gl/039005_gl.png",
      "ce/039005_ce.png"
    ],
    "rank_data": [
      0,
      1,
      2
    ],
    "rank_result": [
      "ours/039005_ours.png",
      "gl/039005_gl.png",
      "ce/039005_ce.png"
    ],
    "rt": 7051,
    "trial_type": "image-rank",
    "trial_index": 62,
    "time_elapsed": 698973,
    "internal_node_id": "0.0-62.0"
  },
  {
    "src": [
      "ours/045735_ours.png",
      "gl/045735_gl.png",
      "ce/045735_ce.png"
    ],
    "rank_data": [
      0,
      2,
      1
    ],
    "rank_result": [
      "ours/045735_ours.png",
      "ce/045735_ce.png",
      "gl/045735_gl.png"
    ],
    "rt": 6059,
    "trial_type": "image-rank",
    "trial_index": 63,
    "time_elapsed": 705033,
    "internal_node_id": "0.0-63.0"
  },
  {
    "src": [
      "ce/115275_ce.png",
      "gl/115275_gl.png",
      "ours/115275_ours.png"
    ],
    "rank_data": [
      1,
      2,
      0
    ],
    "rank_result": [
      "ours/115275_ours.png",
      "ce/115275_ce.png",
      "gl/115275_gl.png"
    ],
    "rt": 9353,
    "trial_type": "image-rank",
    "trial_index": 64,
    "time_elapsed": 714387,
    "internal_node_id": "0.0-64.0"
  },
  {
    "src": [
      "ours/167909_ours.png",
      "ce/167909_ce.png",
      "gl/167909_gl.png"
    ],
    "rank_data": [
      0,
      1,
      2
    ],
    "rank_result": [
      "ours/167909_ours.png",
      "ce/167909_ce.png",
      "gl/167909_gl.png"
    ],
    "rt": 6233,
    "trial_type": "image-rank",
    "trial_index": 65,
    "time_elapsed": 720621,
    "internal_node_id": "0.0-65.0"
  },
  {
    "src": [
      "ce/179719_ce.png",
      "gl/179719_gl.png",
      "ours/179719_ours.png"
    ],
    "rank_data": [
      1,
      2,
      0
    ],
    "rank_result": [
      "ours/179719_ours.png",
      "ce/179719_ce.png",
      "gl/179719_gl.png"
    ],
    "rt": 6066,
    "trial_type": "image-rank",
    "trial_index": 66,
    "time_elapsed": 726687,
    "internal_node_id": "0.0-66.0"
  },
  {
    "src": [
      "ours/112366_ours.png",
      "ce/112366_ce.png",
      "gl/112366_gl.png"
    ],
    "rank_data": [
      0,
      1,
      2
    ],
    "rank_result": [
      "ours/112366_ours.png",
      "ce/112366_ce.png",
      "gl/112366_gl.png"
    ],
    "rt": 6265,
    "trial_type": "image-rank",
    "trial_index": 67,
    "time_elapsed": 732953,
    "internal_node_id": "0.0-67.0"
  },
  {
    "src": [
      "gl/114476_gl.png",
      "ours/114476_ours.png",
      "ce/114476_ce.png"
    ],
    "rank_data": [
      1,
      0,
      2
    ],
    "rank_result": [
      "ours/114476_ours.png",
      "gl/114476_gl.png",
      "ce/114476_ce.png"
    ],
    "rt": 8259,
    "trial_type": "image-rank",
    "trial_index": 68,
    "time_elapsed": 741212,
    "internal_node_id": "0.0-68.0"
  },
  {
    "src": [
      "gl/002093_gl.png",
      "ce/002093_ce.png",
      "ours/002093_ours.png"
    ],
    "rank_data": [
      1,
      2,
      0
    ],
    "rank_result": [
      "ours/002093_ours.png",
      "gl/002093_gl.png",
      "ce/002093_ce.png"
    ],
    "rt": 8587,
    "trial_type": "image-rank",
    "trial_index": 69,
    "time_elapsed": 749802,
    "internal_node_id": "0.0-69.0"
  },
  {
    "src": [
      "gl/171284_gl.png",
      "ce/171284_ce.png",
      "ours/171284_ours.png"
    ],
    "rank_data": [
      2,
      1,
      0
    ],
    "rank_result": [
      "ours/171284_ours.png",
      "ce/171284_ce.png",
      "gl/171284_gl.png"
    ],
    "rt": 11713,
    "trial_type": "image-rank",
    "trial_index": 70,
    "time_elapsed": 761515,
    "internal_node_id": "0.0-70.0"
  },
  {
    "src": [
      "ours/013461_ours.png",
      "gl/013461_gl.png",
      "ce/013461_ce.png"
    ],
    "rank_data": [
      0,
      2,
      1
    ],
    "rank_result": [
      "ours/013461_ours.png",
      "ce/013461_ce.png",
      "gl/013461_gl.png"
    ],
    "rt": 8219,
    "trial_type": "image-rank",
    "trial_index": 71,
    "time_elapsed": 769735,
    "internal_node_id": "0.0-71.0"
  },
  {
    "src": [
      "ours/024154_ours.png",
      "gl/024154_gl.png",
      "ce/024154_ce.png"
    ],
    "rank_data": [
      0,
      1,
      2
    ],
    "rank_result": [
      "ours/024154_ours.png",
      "gl/024154_gl.png",
      "ce/024154_ce.png"
    ],
    "rt": 5934,
    "trial_type": "image-rank",
    "trial_index": 72,
    "time_elapsed": 775671,
    "internal_node_id": "0.0-72.0"
  },
  {
    "src": [
      "gl/013838_gl.png",
      "ours/013838_ours.png",
      "ce/013838_ce.png"
    ],
    "rank_data": [
      0,
      1,
      2
    ],
    "rank_result": [
      "gl/013838_gl.png",
      "ours/013838_ours.png",
      "ce/013838_ce.png"
    ],
    "rt": 5801,
    "trial_type": "image-rank",
    "trial_index": 73,
    "time_elapsed": 781472,
    "internal_node_id": "0.0-73.0"
  },
  {
    "src": [
      "ce/103154_ce.png",
      "gl/103154_gl.png",
      "ours/103154_ours.png"
    ],
    "rank_data": [
      2,
      1,
      0
    ],
    "rank_result": [
      "ours/103154_ours.png",
      "gl/103154_gl.png",
      "ce/103154_ce.png"
    ],
    "rt": 6900,
    "trial_type": "image-rank",
    "trial_index": 74,
    "time_elapsed": 788373,
    "internal_node_id": "0.0-74.0"
  },
  {
    "src": [
      "ce/178091_ce.png",
      "ours/178091_ours.png",
      "gl/178091_gl.png"
    ],
    "rank_data": [
      1,
      0,
      2
    ],
    "rank_result": [
      "ours/178091_ours.png",
      "ce/178091_ce.png",
      "gl/178091_gl.png"
    ],
    "rt": 7172,
    "trial_type": "image-rank",
    "trial_index": 75,
    "time_elapsed": 795546,
    "internal_node_id": "0.0-75.0"
  },
  {
    "src": [
      "ours/016602_ours.png",
      "gl/016602_gl.png",
      "ce/016602_ce.png"
    ],
    "rank_data": [
      0,
      2,
      1
    ],
    "rank_result": [
      "ours/016602_ours.png",
      "ce/016602_ce.png",
      "gl/016602_gl.png"
    ],
    "rt": 7903,
    "trial_type": "image-rank",
    "trial_index": 76,
    "time_elapsed": 803449,
    "internal_node_id": "0.0-76.0"
  },
  {
    "src": [
      "gl/136098_gl.png",
      "ours/136098_ours.png",
      "ce/136098_ce.png"
    ],
    "rank_data": [
      1,
      0,
      2
    ],
    "rank_result": [
      "ours/136098_ours.png",
      "gl/136098_gl.png",
      "ce/136098_ce.png"
    ],
    "rt": 5641,
    "trial_type": "image-rank",
    "trial_index": 77,
    "time_elapsed": 809091,
    "internal_node_id": "0.0-77.0"
  },
  {
    "src": [
      "ours/121048_ours.png",
      "gl/121048_gl.png",
      "ce/121048_ce.png"
    ],
    "rank_data": [
      0,
      1,
      2
    ],
    "rank_result": [
      "ours/121048_ours.png",
      "gl/121048_gl.png",
      "ce/121048_ce.png"
    ],
    "rt": 5364,
    "trial_type": "image-rank",
    "trial_index": 78,
    "time_elapsed": 814455,
    "internal_node_id": "0.0-78.0"
  },
  {
    "src": [
      "ours/151563_ours.png",
      "ce/151563_ce.png",
      "gl/151563_gl.png"
    ],
    "rank_data": [
      0,
      1,
      2
    ],
    "rank_result": [
      "ours/151563_ours.png",
      "ce/151563_ce.png",
      "gl/151563_gl.png"
    ],
    "rt": 6771,
    "trial_type": "image-rank",
    "trial_index": 79,
    "time_elapsed": 821227,
    "internal_node_id": "0.0-79.0"
  },
  {
    "src": [
      "gl/163898_gl.png",
      "ce/163898_ce.png",
      "ours/163898_ours.png"
    ],
    "rank_data": [
      2,
      1,
      0
    ],
    "rank_result": [
      "ours/163898_ours.png",
      "ce/163898_ce.png",
      "gl/163898_gl.png"
    ],
    "rt": 5736,
    "trial_type": "image-rank",
    "trial_index": 80,
    "time_elapsed": 826964,
    "internal_node_id": "0.0-80.0"
  },
  {
    "src": [
      "gl/076912_gl.png",
      "ce/076912_ce.png",
      "ours/076912_ours.png"
    ],
    "rank_data": [
      1,
      2,
      0
    ],
    "rank_result": [
      "ours/076912_ours.png",
      "gl/076912_gl.png",
      "ce/076912_ce.png"
    ],
    "rt": 7073,
    "trial_type": "image-rank",
    "trial_index": 81,
    "time_elapsed": 834038,
    "internal_node_id": "0.0-81.0"
  },
  {
    "src": [
      "gl/089223_gl.png",
      "ce/089223_ce.png",
      "ours/089223_ours.png"
    ],
    "rank_data": [
      2,
      1,
      0
    ],
    "rank_result": [
      "ours/089223_ours.png",
      "ce/089223_ce.png",
      "gl/089223_gl.png"
    ],
    "rt": 7883,
    "trial_type": "image-rank",
    "trial_index": 82,
    "time_elapsed": 841921,
    "internal_node_id": "0.0-82.0"
  },
  {
    "src": [
      "gl/118166_gl.png",
      "ce/118166_ce.png",
      "ours/118166_ours.png"
    ],
    "rank_data": [
      1,
      2,
      0
    ],
    "rank_result": [
      "ours/118166_ours.png",
      "gl/118166_gl.png",
      "ce/118166_ce.png"
    ],
    "rt": 9076,
    "trial_type": "image-rank",
    "trial_index": 83,
    "time_elapsed": 850997,
    "internal_node_id": "0.0-83.0"
  },
  {
    "src": [
      "ce/094962_ce.png",
      "gl/094962_gl.png",
      "ours/094962_ours.png"
    ],
    "rank_data": [
      1,
      2,
      0
    ],
    "rank_result": [
      "ours/094962_ours.png",
      "ce/094962_ce.png",
      "gl/094962_gl.png"
    ],
    "rt": 5858,
    "trial_type": "image-rank",
    "trial_index": 84,
    "time_elapsed": 856855,
    "internal_node_id": "0.0-84.0"
  },
  {
    "src": [
      "gl/097858_gl.png",
      "ours/097858_ours.png",
      "ce/097858_ce.png"
    ],
    "rank_data": [
      2,
      1,
      0
    ],
    "rank_result": [
      "ce/097858_ce.png",
      "ours/097858_ours.png",
      "gl/097858_gl.png"
    ],
    "rt": 5554,
    "trial_type": "image-rank",
    "trial_index": 85,
    "time_elapsed": 862410,
    "internal_node_id": "0.0-85.0"
  },
  {
    "src": [
      "ours/199139_ours.png",
      "gl/199139_gl.png",
      "ce/199139_ce.png"
    ],
    "rank_data": [
      0,
      2,
      1
    ],
    "rank_result": [
      "ours/199139_ours.png",
      "ce/199139_ce.png",
      "gl/199139_gl.png"
    ],
    "rt": 5372,
    "trial_type": "image-rank",
    "trial_index": 86,
    "time_elapsed": 867783,
    "internal_node_id": "0.0-86.0"
  },
  {
    "src": [
      "ce/081386_ce.png",
      "gl/081386_gl.png",
      "ours/081386_ours.png"
    ],
    "rank_data": [
      2,
      1,
      0
    ],
    "rank_result": [
      "ours/081386_ours.png",
      "gl/081386_gl.png",
      "ce/081386_ce.png"
    ],
    "rt": 4939,
    "trial_type": "image-rank",
    "trial_index": 87,
    "time_elapsed": 872722,
    "internal_node_id": "0.0-87.0"
  },
  {
    "src": [
      "ours/025898_ours.png",
      "ce/025898_ce.png",
      "gl/025898_gl.png"
    ],
    "rank_data": [
      0,
      1,
      2
    ],
    "rank_result": [
      "ours/025898_ours.png",
      "ce/025898_ce.png",
      "gl/025898_gl.png"
    ],
    "rt": 12876,
    "trial_type": "image-rank",
    "trial_index": 88,
    "time_elapsed": 885599,
    "internal_node_id": "0.0-88.0"
  },
  {
    "src": [
      "gl/056914_gl.png",
      "ce/056914_ce.png",
      "ours/056914_ours.png"
    ],
    "rank_data": [
      1,
      2,
      0
    ],
    "rank_result": [
      "ours/056914_ours.png",
      "gl/056914_gl.png",
      "ce/056914_ce.png"
    ],
    "rt": 6303,
    "trial_type": "image-rank",
    "trial_index": 89,
    "time_elapsed": 891902,
    "internal_node_id": "0.0-89.0"
  },
  {
    "src": [
      "ce/010588_ce.png",
      "gl/010588_gl.png",
      "ours/010588_ours.png"
    ],
    "rank_data": [
      2,
      1,
      0
    ],
    "rank_result": [
      "ours/010588_ours.png",
      "gl/010588_gl.png",
      "ce/010588_ce.png"
    ],
    "rt": 6887,
    "trial_type": "image-rank",
    "trial_index": 90,
    "time_elapsed": 898790,
    "internal_node_id": "0.0-90.0"
  },
  {
    "src": [
      "ce/041139_ce.png",
      "ours/041139_ours.png",
      "gl/041139_gl.png"
    ],
    "rank_data": [
      1,
      0,
      2
    ],
    "rank_result": [
      "ours/041139_ours.png",
      "ce/041139_ce.png",
      "gl/041139_gl.png"
    ],
    "rt": 7668,
    "trial_type": "image-rank",
    "trial_index": 91,
    "time_elapsed": 906458,
    "internal_node_id": "0.0-91.0"
  },
  {
    "src": [
      "gl/036464_gl.png",
      "ours/036464_ours.png",
      "ce/036464_ce.png"
    ],
    "rank_data": [
      2,
      0,
      1
    ],
    "rank_result": [
      "ours/036464_ours.png",
      "ce/036464_ce.png",
      "gl/036464_gl.png"
    ],
    "rt": 8762,
    "trial_type": "image-rank",
    "trial_index": 92,
    "time_elapsed": 915221,
    "internal_node_id": "0.0-92.0"
  },
  {
    "src": [
      "ce/163089_ce.png",
      "gl/163089_gl.png",
      "ours/163089_ours.png"
    ],
    "rank_data": [
      2,
      1,
      0
    ],
    "rank_result": [
      "ours/163089_ours.png",
      "gl/163089_gl.png",
      "ce/163089_ce.png"
    ],
    "rt": 6656,
    "trial_type": "image-rank",
    "trial_index": 93,
    "time_elapsed": 921878,
    "internal_node_id": "0.0-93.0"
  },
  {
    "src": [
      "ce/091644_ce.png",
      "gl/091644_gl.png",
      "ours/091644_ours.png"
    ],
    "rank_data": [
      1,
      2,
      0
    ],
    "rank_result": [
      "ours/091644_ours.png",
      "ce/091644_ce.png",
      "gl/091644_gl.png"
    ],
    "rt": 6248,
    "trial_type": "image-rank",
    "trial_index": 94,
    "time_elapsed": 928126,
    "internal_node_id": "0.0-94.0"
  },
  {
    "src": [
      "ours/023299_ours.png",
      "gl/023299_gl.png",
      "ce/023299_ce.png"
    ],
    "rank_data": [
      0,
      2,
      1
    ],
    "rank_result": [
      "ours/023299_ours.png",
      "ce/023299_ce.png",
      "gl/023299_gl.png"
    ],
    "rt": 13795,
    "trial_type": "image-rank",
    "trial_index": 95,
    "time_elapsed": 941922,
    "internal_node_id": "0.0-95.0"
  },
  {
    "src": [
      "ce/087950_ce.png",
      "gl/087950_gl.png",
      "ours/087950_ours.png"
    ],
    "rank_data": [
      2,
      1,
      0
    ],
    "rank_result": [
      "ours/087950_ours.png",
      "gl/087950_gl.png",
      "ce/087950_ce.png"
    ],
    "rt": 10679,
    "trial_type": "image-rank",
    "trial_index": 96,
    "time_elapsed": 952602,
    "internal_node_id": "0.0-96.0"
  },
  {
    "src": [
      "ours/088675_ours.png",
      "ce/088675_ce.png",
      "gl/088675_gl.png"
    ],
    "rank_data": [
      0,
      1,
      2
    ],
    "rank_result": [
      "ours/088675_ours.png",
      "ce/088675_ce.png",
      "gl/088675_gl.png"
    ],
    "rt": 8455,
    "trial_type": "image-rank",
    "trial_index": 97,
    "time_elapsed": 961059,
    "internal_node_id": "0.0-97.0"
  },
  {
    "src": [
      "ours/020566_ours.png",
      "ce/020566_ce.png",
      "gl/020566_gl.png"
    ],
    "rank_data": [
      0,
      2,
      1
    ],
    "rank_result": [
      "ours/020566_ours.png",
      "gl/020566_gl.png",
      "ce/020566_ce.png"
    ],
    "rt": 6275,
    "trial_type": "image-rank",
    "trial_index": 98,
    "time_elapsed": 967335,
    "internal_node_id": "0.0-98.0"
  },
  {
    "src": [
      "gl/186999_gl.png",
      "ce/186999_ce.png",
      "ours/186999_ours.png"
    ],
    "rank_data": [
      2,
      1,
      0
    ],
    "rank_result": [
      "ours/186999_ours.png",
      "ce/186999_ce.png",
      "gl/186999_gl.png"
    ],
    "rt": 6273,
    "trial_type": "image-rank",
    "trial_index": 99,
    "time_elapsed": 973609,
    "internal_node_id": "0.0-99.0"
  },
  {
    "src": [
      "gl/048160_gl.png",
      "ce/048160_ce.png",
      "ours/048160_ours.png"
    ],
    "rank_data": [
      1,
      2,
      0
    ],
    "rank_result": [
      "ours/048160_ours.png",
      "gl/048160_gl.png",
      "ce/048160_ce.png"
    ],
    "rt": 10227,
    "trial_type": "image-rank",
    "trial_index": 100,
    "time_elapsed": 983836,
    "internal_node_id": "0.0-100.0"
  },
  {
    "src": [
      "gl/116629_gl.png",
      "ce/116629_ce.png",
      "ours/116629_ours.png"
    ],
    "rank_data": [
      2,
      1,
      0
    ],
    "rank_result": [
      "ours/116629_ours.png",
      "ce/116629_ce.png",
      "gl/116629_gl.png"
    ],
    "rt": 6711,
    "trial_type": "image-rank",
    "trial_index": 101,
    "time_elapsed": 990547,
    "internal_node_id": "0.0-101.0"
  },
  {
    "src": [
      "gl/098941_gl.png",
      "ours/098941_ours.png",
      "ce/098941_ce.png"
    ],
    "rank_data": [
      2,
      0,
      1
    ],
    "rank_result": [
      "ours/098941_ours.png",
      "ce/098941_ce.png",
      "gl/098941_gl.png"
    ],
    "rt": 10007,
    "trial_type": "image-rank",
    "trial_index": 102,
    "time_elapsed": 1000554,
    "internal_node_id": "0.0-102.0"
  }
]