[
  {
    "rt": 2378,
    "stimulus": "Welcome to the experiment. Press any key to begin.",
    "key_press": 32,
    "trial_type": "html-keyboard-response",
    "trial_index": 0,
    "time_elapsed": 2379,
    "internal_node_id": "0.0-0.0"
  },
  {
    "rt": 608,
    "stimulus": "<p>In this experiment, three images of people will appear in the center of the screen.</p><p>Your task is to rank these images based on how <strong>real</strong> you think they are.<p>The ranking level is between 1 to 3, with <strong>1</strong> representing the most real one and <strong>3</strong> the fakest one.</p><p>The time to rank is not limited. When you finish ranking, click the <strong>Continue</strong> button to continue.</p>",
    "key_press": 32,
    "trial_type": "html-keyboard-response",
    "trial_index": 1,
    "time_elapsed": 2988,
    "internal_node_id": "0.0-1.0"
  },
  {
    "rt": null,
    "stimulus": "<div style=\"font-size:60px;\"></div>",
    "key_press": null,
    "label": "fixation",
    "trial_type": "html-keyboard-response",
    "trial_index": 2,
    "time_elapsed": 3990,
    "internal_node_id": "0.0-2.0"
  },
  {
    "src": [
      "gl/133265_gl.png",
      "ce/133265_ce.png",
      "ours/133265_ours.png"
    ],
    "rank_data": [
      2,
      1,
      0
    ],
    "rank_result": [
      "ours/133265_ours.png",
      "ce/133265_ce.png",
      "gl/133265_gl.png"
    ],
    "rt": 8519,
    "trial_type": "image-rank",
    "trial_index": 3,
    "time_elapsed": 12509,
    "internal_node_id": "0.0-3.0"
  },
  {
    "src": [
      "gl/197999_gl.png",
      "ours/197999_ours.png",
      "ce/197999_ce.png"
    ],
    "rank_data": [
      2,
      0,
      1
    ],
    "rank_result": [
      "ours/197999_ours.png",
      "ce/197999_ce.png",
      "gl/197999_gl.png"
    ],
    "rt": 8818,
    "trial_type": "image-rank",
    "trial_index": 4,
    "time_elapsed": 21328,
    "internal_node_id": "0.0-4.0"
  },
  {
    "src": [
      "ours/162198_ours.png",
      "gl/162198_gl.png",
      "ce/162198_ce.png"
    ],
    "rank_data": [
      0,
      1,
      2
    ],
    "rank_result": [
      "ours/162198_ours.png",
      "gl/162198_gl.png",
      "ce/162198_ce.png"
    ],
    "rt": 5644,
    "trial_type": "image-rank",
    "trial_index": 5,
    "time_elapsed": 26972,
    "internal_node_id": "0.0-5.0"
  },
  {
    "src": [
      "ours/141452_ours.png",
      "ce/141452_ce.png",
      "gl/141452_gl.png"
    ],
    "rank_data": [
      0,
      2,
      1
    ],
    "rank_result": [
      "ours/141452_ours.png",
      "gl/141452_gl.png",
      "ce/141452_ce.png"
    ],
    "rt": 7059,
    "trial_type": "image-rank",
    "trial_index": 6,
    "time_elapsed": 34032,
    "internal_node_id": "0.0-6.0"
  },
  {
    "src": [
      "gl/103561_gl.png",
      "ce/103561_ce.png",
      "ours/103561_ours.png"
    ],
    "rank_data": [
      2,
      1,
      0
    ],
    "rank_result": [
      "ours/103561_ours.png",
      "ce/103561_ce.png",
      "gl/103561_gl.png"
    ],
    "rt": 8004,
    "trial_type": "image-rank",
    "trial_index": 7,
    "time_elapsed": 42036,
    "internal_node_id": "0.0-7.0"
  },
  {
    "src": [
      "ce/193728_ce.png",
      "gl/193728_gl.png",
      "ours/193728_ours.png"
    ],
    "rank_data": [
      1,
      2,
      0
    ],
    "rank_result": [
      "ours/193728_ours.png",
      "ce/193728_ce.png",
      "gl/193728_gl.png"
    ],
    "rt": 7952,
    "trial_type": "image-rank",
    "trial_index": 8,
    "time_elapsed": 49989,
    "internal_node_id": "0.0-8.0"
  },
  {
    "src": [
      "ce/087038_ce.png",
      "gl/087038_gl.png",
      "ours/087038_ours.png"
    ],
    "rank_data": [
      1,
      2,
      0
    ],
    "rank_result": [
      "ours/087038_ours.png",
      "ce/087038_ce.png",
      "gl/087038_gl.png"
    ],
    "rt": 6045,
    "trial_type": "image-rank",
    "trial_index": 9,
    "time_elapsed": 56034,
    "internal_node_id": "0.0-9.0"
  },
  {
    "src": [
      "ce/151314_ce.png",
      "ours/151314_ours.png",
      "gl/151314_gl.png"
    ],
    "rank_data": [
      1,
      0,
      2
    ],
    "rank_result": [
      "ours/151314_ours.png",
      "ce/151314_ce.png",
      "gl/151314_gl.png"
    ],
    "rt": 5076,
    "trial_type": "image-rank",
    "trial_index": 10,
    "time_elapsed": 61112,
    "internal_node_id": "0.0-10.0"
  },
  {
    "src": [
      "gl/152961_gl.png",
      "ours/152961_ours.png",
      "ce/152961_ce.png"
    ],
    "rank_data": [
      2,
      0,
      1
    ],
    "rank_result": [
      "ours/152961_ours.png",
      "ce/152961_ce.png",
      "gl/152961_gl.png"
    ],
    "rt": 4976,
    "trial_type": "image-rank",
    "trial_index": 11,
    "time_elapsed": 66089,
    "internal_node_id": "0.0-11.0"
  },
  {
    "src": [
      "gl/040770_gl.png",
      "ours/040770_ours.png",
      "ce/040770_ce.png"
    ],
    "rank_data": [
      2,
      0,
      1
    ],
    "rank_result": [
      "ours/040770_ours.png",
      "ce/040770_ce.png",
      "gl/040770_gl.png"
    ],
    "rt": 5372,
    "trial_type": "image-rank",
    "trial_index": 12,
    "time_elapsed": 71462,
    "internal_node_id": "0.0-12.0"
  },
  {
    "src": [
      "gl/127712_gl.png",
      "ce/127712_ce.png",
      "ours/127712_ours.png"
    ],
    "rank_data": [
      2,
      1,
      0
    ],
    "rank_result": [
      "ours/127712_ours.png",
      "ce/127712_ce.png",
      "gl/127712_gl.png"
    ],
    "rt": 8091,
    "trial_type": "image-rank",
    "trial_index": 13,
    "time_elapsed": 79553,
    "internal_node_id": "0.0-13.0"
  },
  {
    "src": [
      "gl/075381_gl.png",
      "ce/075381_ce.png",
      "ours/075381_ours.png"
    ],
    "rank_data": [
      2,
      1,
      0
    ],
    "rank_result": [
      "ours/075381_ours.png",
      "ce/075381_ce.png",
      "gl/075381_gl.png"
    ],
    "rt": 7194,
    "trial_type": "image-rank",
    "trial_index": 14,
    "time_elapsed": 86748,
    "internal_node_id": "0.0-14.0"
  },
  {
    "src": [
      "gl/071378_gl.png",
      "ours/071378_ours.png",
      "ce/071378_ce.png"
    ],
    "rank_data": [
      1,
      0,
      2
    ],
    "rank_result": [
      "ours/071378_ours.png",
      "gl/071378_gl.png",
      "ce/071378_ce.png"
    ],
    "rt": 17918,
    "trial_type": "image-rank",
    "trial_index": 15,
    "time_elapsed": 104666,
    "internal_node_id": "0.0-15.0"
  },
  {
    "src": [
      "ours/070612_ours.png",
      "gl/070612_gl.png",
      "ce/070612_ce.png"
    ],
    "rank_data": [
      0,
      1,
      2
    ],
    "rank_result": [
      "ours/070612_ours.png",
      "gl/070612_gl.png",
      "ce/070612_ce.png"
    ],
    "rt": 5947,
    "trial_type": "image-rank",
    "trial_index": 16,
    "time_elapsed": 110615,
    "internal_node_id": "0.0-16.0"
  },
  {
    "src": [
      "gl/188462_gl.png",
      "ce/188462_ce.png",
      "ours/188462_ours.png"
    ],
    "rank_data": [
      2,
      1,
      0
    ],
    "rank_result": [
      "ours/188462_ours.png",
      "ce/188462_ce.png",
      "gl/188462_gl.png"
    ],
    "rt": 6825,
    "trial_type": "image-rank",
    "trial_index": 17,
    "time_elapsed": 117440,
    "internal_node_id": "0.0-17.0"
  },
  {
    "src": [
      "gl/036367_gl.png",
      "ours/036367_ours.png",
      "ce/036367_ce.png"
    ],
    "rank_data": [
      2,
      0,
      1
    ],
    "rank_result": [
      "ours/036367_ours.png",
      "ce/036367_ce.png",
      "gl/036367_gl.png"
    ],
    "rt": 9331,
    "trial_type": "image-rank",
    "trial_index": 18,
    "time_elapsed": 126773,
    "internal_node_id": "0.0-18.0"
  },
  {
    "src": [
      "gl/052224_gl.png",
      "ours/052224_ours.png",
      "ce/052224_ce.png"
    ],
    "rank_data": [
      1,
      0,
      2
    ],
    "rank_result": [
      "ours/052224_ours.png",
      "gl/052224_gl.png",
      "ce/052224_ce.png"
    ],
    "rt": 10191,
    "trial_type": "image-rank",
    "trial_index": 19,
    "time_elapsed": 136964,
    "internal_node_id": "0.0-19.0"
  },
  {
    "src": [
      "ce/111492_ce.png",
      "gl/111492_gl.png",
      "ours/111492_ours.png"
    ],
    "rank_data": [
      2,
      1,
      0
    ],
    "rank_result": [
      "ours/111492_ours.png",
      "gl/111492_gl.png",
      "ce/111492_ce.png"
    ],
    "rt": 5355,
    "trial_type": "image-rank",
    "trial_index": 20,
    "time_elapsed": 142319,
    "internal_node_id": "0.0-20.0"
  },
  {
    "src": [
      "ours/024137_ours.png",
      "gl/024137_gl.png",
      "ce/024137_ce.png"
    ],
    "rank_data": [
      0,
      2,
      1
    ],
    "rank_result": [
      "ours/024137_ours.png",
      "ce/024137_ce.png",
      "gl/024137_gl.png"
    ],
    "rt": 7771,
    "trial_type": "image-rank",
    "trial_index": 21,
    "time_elapsed": 150090,
    "internal_node_id": "0.0-21.0"
  },
  {
    "src": [
      "ours/202476_ours.png",
      "ce/202476_ce.png",
      "gl/202476_gl.png"
    ],
    "rank_data": [
      0,
      2,
      1
    ],
    "rank_result": [
      "ours/202476_ours.png",
      "gl/202476_gl.png",
      "ce/202476_ce.png"
    ],
    "rt": 10488,
    "trial_type": "image-rank",
    "trial_index": 22,
    "time_elapsed": 160578,
    "internal_node_id": "0.0-22.0"
  },
  {
    "src": [
      "ours/128394_ours.png",
      "ce/128394_ce.png",
      "gl/128394_gl.png"
    ],
    "rank_data": [
      0,
      1,
      2
    ],
    "rank_result": [
      "ours/128394_ours.png",
      "ce/128394_ce.png",
      "gl/128394_gl.png"
    ],
    "rt": 9059,
    "trial_type": "image-rank",
    "trial_index": 23,
    "time_elapsed": 169638,
    "internal_node_id": "0.0-23.0"
  },
  {
    "src": [
      "ce/145916_ce.png",
      "ours/145916_ours.png",
      "gl/145916_gl.png"
    ],
    "rank_data": [
      2,
      0,
      1
    ],
    "rank_result": [
      "ours/145916_ours.png",
      "gl/145916_gl.png",
      "ce/145916_ce.png"
    ],
    "rt": 7033,
    "trial_type": "image-rank",
    "trial_index": 24,
    "time_elapsed": 176671,
    "internal_node_id": "0.0-24.0"
  },
  {
    "src": [
      "ours/027371_ours.png",
      "ce/027371_ce.png",
      "gl/027371_gl.png"
    ],
    "rank_data": [
      0,
      1,
      2
    ],
    "rank_result": [
      "ours/027371_ours.png",
      "ce/027371_ce.png",
      "gl/027371_gl.png"
    ],
    "rt": 6702,
    "trial_type": "image-rank",
    "trial_index": 25,
    "time_elapsed": 183373,
    "internal_node_id": "0.0-25.0"
  },
  {
    "src": [
      "ce/005762_ce.png",
      "gl/005762_gl.png",
      "ours/005762_ours.png"
    ],
    "rank_data": [
      2,
      1,
      0
    ],
    "rank_result": [
      "ours/005762_ours.png",
      "gl/005762_gl.png",
      "ce/005762_ce.png"
    ],
    "rt": 12714,
    "trial_type": "image-rank",
    "trial_index": 26,
    "time_elapsed": 196088,
    "internal_node_id": "0.0-26.0"
  },
  {
    "src": [
      "gl/027808_gl.png",
      "ours/027808_ours.png",
      "ce/027808_ce.png"
    ],
    "rank_data": [
      1,
      0,
      2
    ],
    "rank_result": [
      "ours/027808_ours.png",
      "gl/027808_gl.png",
      "ce/027808_ce.png"
    ],
    "rt": 7667,
    "trial_type": "image-rank",
    "trial_index": 27,
    "time_elapsed": 203755,
    "internal_node_id": "0.0-27.0"
  },
  {
    "src": [
      "ours/001418_ours.png",
      "ce/001418_ce.png",
      "gl/001418_gl.png"
    ],
    "rank_data": [
      0,
      2,
      1
    ],
    "rank_result": [
      "ours/001418_ours.png",
      "gl/001418_gl.png",
      "ce/001418_ce.png"
    ],
    "rt": 6491,
    "trial_type": "image-rank",
    "trial_index": 28,
    "time_elapsed": 210247,
    "internal_node_id": "0.0-28.0"
  },
  {
    "src": [
      "ce/100259_ce.png",
      "gl/100259_gl.png",
      "ours/100259_ours.png"
    ],
    "rank_data": [
      2,
      1,
      0
    ],
    "rank_result": [
      "ours/100259_ours.png",
      "gl/100259_gl.png",
      "ce/100259_ce.png"
    ],
    "rt": 8709,
    "trial_type": "image-rank",
    "trial_index": 29,
    "time_elapsed": 218956,
    "internal_node_id": "0.0-29.0"
  },
  {
    "src": [
      "ours/085238_ours.png",
      "gl/085238_gl.png",
      "ce/085238_ce.png"
    ],
    "rank_data": [
      0,
      1,
      2
    ],
    "rank_result": [
      "ours/085238_ours.png",
      "gl/085238_gl.png",
      "ce/085238_ce.png"
    ],
    "rt": 8052,
    "trial_type": "image-rank",
    "trial_index": 30,
    "time_elapsed": 227009,
    "internal_node_id": "0.0-30.0"
  },
  {
    "src": [
      "ce/081378_ce.png",
      "gl/081378_gl.png",
      "ours/081378_ours.png"
    ],
    "rank_data": [
      2,
      1,
      0
    ],
    "rank_result": [
      "ours/081378_ours.png",
      "gl/081378_gl.png",
      "ce/081378_ce.png"
    ],
    "rt": 4184,
    "trial_type": "image-rank",
    "trial_index": 31,
    "time_elapsed": 231193,
    "internal_node_id": "0.0-31.0"
  },
  {
    "src": [
      "ce/180799_ce.png",
      "gl/180799_gl.png",
      "ours/180799_ours.png"
    ],
    "rank_data": [
      2,
      1,
      0
    ],
    "rank_result": [
      "ours/180799_ours.png",
      "gl/180799_gl.png",
      "ce/180799_ce.png"
    ],
    "rt": 8124,
    "trial_type": "image-rank",
    "trial_index": 32,
    "time_elapsed": 239318,
    "internal_node_id": "0.0-32.0"
  },
  {
    "src": [
      "ce/035834_ce.png",
      "ours/035834_ours.png",
      "gl/035834_gl.png"
    ],
    "rank_data": [
      2,
      0,
      1
    ],
    "rank_result": [
      "ours/035834_ours.png",
      "gl/035834_gl.png",
      "ce/035834_ce.png"
    ],
    "rt": 4904,
    "trial_type": "image-rank",
    "trial_index": 33,
    "time_elapsed": 244223,
    "internal_node_id": "0.0-33.0"
  },
  {
    "src": [
      "ce/160736_ce.png",
      "gl/160736_gl.png",
      "ours/160736_ours.png"
    ],
    "rank_data": [
      1,
      2,
      0
    ],
    "rank_result": [
      "ours/160736_ours.png",
      "ce/160736_ce.png",
      "gl/160736_gl.png"
    ],
    "rt": 4805,
    "trial_type": "image-rank",
    "trial_index": 34,
    "time_elapsed": 249028,
    "internal_node_id": "0.0-34.0"
  },
  {
    "src": [
      "gl/155960_gl.png",
      "ce/155960_ce.png",
      "ours/155960_ours.png"
    ],
    "rank_data": [
      2,
      1,
      0
    ],
    "rank_result": [
      "ours/155960_ours.png",
      "ce/155960_ce.png",
      "gl/155960_gl.png"
    ],
    "rt": 8538,
    "trial_type": "image-rank",
    "trial_index": 35,
    "time_elapsed": 257567,
    "internal_node_id": "0.0-35.0"
  },
  {
    "src": [
      "gl/075956_gl.png",
      "ours/075956_ours.png",
      "ce/075956_ce.png"
    ],
    "rank_data": [
      2,
      0,
      1
    ],
    "rank_result": [
      "ours/075956_ours.png",
      "ce/075956_ce.png",
      "gl/075956_gl.png"
    ],
    "rt": 13898,
    "trial_type": "image-rank",
    "trial_index": 36,
    "time_elapsed": 271466,
    "internal_node_id": "0.0-36.0"
  },
  {
    "src": [
      "ce/178081_ce.png",
      "ours/178081_ours.png",
      "gl/178081_gl.png"
    ],
    "rank_data": [
      1,
      0,
      2
    ],
    "rank_result": [
      "ours/178081_ours.png",
      "ce/178081_ce.png",
      "gl/178081_gl.png"
    ],
    "rt": 7683,
    "trial_type": "image-rank",
    "trial_index": 37,
    "time_elapsed": 279149,
    "internal_node_id": "0.0-37.0"
  },
  {
    "src": [
      "ce/036953_ce.png",
      "gl/036953_gl.png",
      "ours/036953_ours.png"
    ],
    "rank_data": [
      2,
      1,
      0
    ],
    "rank_result": [
      "ours/036953_ours.png",
      "gl/036953_gl.png",
      "ce/036953_ce.png"
    ],
    "rt": 5490,
    "trial_type": "image-rank",
    "trial_index": 38,
    "time_elapsed": 284640,
    "internal_node_id": "0.0-38.0"
  },
  {
    "src": [
      "ours/157395_ours.png",
      "ce/157395_ce.png",
      "gl/157395_gl.png"
    ],
    "rank_data": [
      0,
      2,
      1
    ],
    "rank_result": [
      "ours/157395_ours.png",
      "gl/157395_gl.png",
      "ce/157395_ce.png"
    ],
    "rt": 13745,
    "trial_type": "image-rank",
    "trial_index": 39,
    "time_elapsed": 298385,
    "internal_node_id": "0.0-39.0"
  },
  {
    "src": [
      "ce/056408_ce.png",
      "gl/056408_gl.png",
      "ours/056408_ours.png"
    ],
    "rank_data": [
      2,
      1,
      0
    ],
    "rank_result": [
      "ours/056408_ours.png",
      "gl/056408_gl.png",
      "ce/056408_ce.png"
    ],
    "rt": 9421,
    "trial_type": "image-rank",
    "trial_index": 40,
    "time_elapsed": 307806,
    "internal_node_id": "0.0-40.0"
  },
  {
    "src": [
      "ours/122939_ours.png",
      "ce/122939_ce.png",
      "gl/122939_gl.png"
    ],
    "rank_data": [
      0,
      1,
      2
    ],
    "rank_result": [
      "ours/122939_ours.png",
      "ce/122939_ce.png",
      "gl/122939_gl.png"
    ],
    "rt": 8978,
    "trial_type": "image-rank",
    "trial_index": 41,
    "time_elapsed": 316784,
    "internal_node_id": "0.0-41.0"
  },
  {
    "src": [
      "ours/190496_ours.png",
      "gl/190496_gl.png",
      "ce/190496_ce.png"
    ],
    "rank_data": [
      0,
      2,
      1
    ],
    "rank_result": [
      "ours/190496_ours.png",
      "ce/190496_ce.png",
      "gl/190496_gl.png"
    ],
    "rt": 5165,
    "trial_type": "image-rank",
    "trial_index": 42,
    "time_elapsed": 321950,
    "internal_node_id": "0.0-42.0"
  },
  {
    "src": [
      "ours/083539_ours.png",
      "gl/083539_gl.png",
      "ce/083539_ce.png"
    ],
    "rank_data": [
      0,
      2,
      1
    ],
    "rank_result": [
      "ours/083539_ours.png",
      "ce/083539_ce.png",
      "gl/083539_gl.png"
    ],
    "rt": 9909,
    "trial_type": "image-rank",
    "trial_index": 43,
    "time_elapsed": 331860,
    "internal_node_id": "0.0-43.0"
  },
  {
    "src": [
      "ours/174173_ours.png",
      "ce/174173_ce.png",
      "gl/174173_gl.png"
    ],
    "rank_data": [
      0,
      1,
      2
    ],
    "rank_result": [
      "ours/174173_ours.png",
      "ce/174173_ce.png",
      "gl/174173_gl.png"
    ],
    "rt": 15056,
    "trial_type": "image-rank",
    "trial_index": 44,
    "time_elapsed": 346916,
    "internal_node_id": "0.0-44.0"
  },
  {
    "src": [
      "ce/188746_ce.png",
      "ours/188746_ours.png",
      "gl/188746_gl.png"
    ],
    "rank_data": [
      2,
      0,
      1
    ],
    "rank_result": [
      "ours/188746_ours.png",
      "gl/188746_gl.png",
      "ce/188746_ce.png"
    ],
    "rt": 9899,
    "trial_type": "image-rank",
    "trial_index": 45,
    "time_elapsed": 356815,
    "internal_node_id": "0.0-45.0"
  },
  {
    "src": [
      "ours/058417_ours.png",
      "gl/058417_gl.png",
      "ce/058417_ce.png"
    ],
    "rank_data": [
      0,
      2,
      1
    ],
    "rank_result": [
      "ours/058417_ours.png",
      "ce/058417_ce.png",
      "gl/058417_gl.png"
    ],
    "rt": 7058,
    "trial_type": "image-rank",
    "trial_index": 46,
    "time_elapsed": 363873,
    "internal_node_id": "0.0-46.0"
  },
  {
    "src": [
      "ce/052846_ce.png",
      "ours/052846_ours.png",
      "gl/052846_gl.png"
    ],
    "rank_data": [
      2,
      0,
      1
    ],
    "rank_result": [
      "ours/052846_ours.png",
      "gl/052846_gl.png",
      "ce/052846_ce.png"
    ],
    "rt": 6503,
    "trial_type": "image-rank",
    "trial_index": 47,
    "time_elapsed": 370377,
    "internal_node_id": "0.0-47.0"
  },
  {
    "src": [
      "ce/160849_ce.png",
      "gl/160849_gl.png",
      "ours/160849_ours.png"
    ],
    "rank_data": [
      2,
      1,
      0
    ],
    "rank_result": [
      "ours/160849_ours.png",
      "gl/160849_gl.png",
      "ce/160849_ce.png"
    ],
    "rt": 4906,
    "trial_type": "image-rank",
    "trial_index": 48,
    "time_elapsed": 375285,
    "internal_node_id": "0.0-48.0"
  },
  {
    "src": [
      "ours/140590_ours.png",
      "ce/140590_ce.png",
      "gl/140590_gl.png"
    ],
    "rank_data": [
      0,
      1,
      2
    ],
    "rank_result": [
      "ours/140590_ours.png",
      "ce/140590_ce.png",
      "gl/140590_gl.png"
    ],
    "rt": 6523,
    "trial_type": "image-rank",
    "trial_index": 49,
    "time_elapsed": 381809,
    "internal_node_id": "0.0-49.0"
  },
  {
    "src": [
      "ours/170016_ours.png",
      "ce/170016_ce.png",
      "gl/170016_gl.png"
    ],
    "rank_data": [
      0,
      2,
      1
    ],
    "rank_result": [
      "ours/170016_ours.png",
      "gl/170016_gl.png",
      "ce/170016_ce.png"
    ],
    "rt": 5389,
    "trial_type": "image-rank",
    "trial_index": 50,
    "time_elapsed": 387198,
    "internal_node_id": "0.0-50.0"
  },
  {
    "src": [
      "gl/176359_gl.png",
      "ours/176359_ours.png",
      "ce/176359_ce.png"
    ],
    "rank_data": [
      2,
      0,
      1
    ],
    "rank_result": [
      "ours/176359_ours.png",
      "ce/176359_ce.png",
      "gl/176359_gl.png"
    ],
    "rt": 14075,
    "trial_type": "image-rank",
    "trial_index": 51,
    "time_elapsed": 401274,
    "internal_node_id": "0.0-51.0"
  },
  {
    "src": [
      "gl/172366_gl.png",
      "ours/172366_ours.png",
      "ce/172366_ce.png"
    ],
    "rank_data": [
      2,
      0,
      1
    ],
    "rank_result": [
      "ours/172366_ours.png",
      "ce/172366_ce.png",
      "gl/172366_gl.png"
    ],
    "rt": 5716,
    "trial_type": "image-rank",
    "trial_index": 52,
    "time_elapsed": 406990,
    "internal_node_id": "0.0-52.0"
  },
  {
    "src": [
      "ours/025396_ours.png",
      "gl/025396_gl.png",
      "ce/025396_ce.png"
    ],
    "rank_data": [
      0,
      1,
      2
    ],
    "rank_result": [
      "ours/025396_ours.png",
      "gl/025396_gl.png",
      "ce/025396_ce.png"
    ],
    "rt": 7107,
    "trial_type": "image-rank",
    "trial_index": 53,
    "time_elapsed": 414098,
    "internal_node_id": "0.0-53.0"
  },
  {
    "src": [
      "ours/015865_ours.png",
      "gl/015865_gl.png",
      "ce/015865_ce.png"
    ],
    "rank_data": [
      0,
      2,
      1
    ],
    "rank_result": [
      "ours/015865_ours.png",
      "ce/015865_ce.png",
      "gl/015865_gl.png"
    ],
    "rt": 5442,
    "trial_type": "image-rank",
    "trial_index": 54,
    "time_elapsed": 419540,
    "internal_node_id": "0.0-54.0"
  },
  {
    "src": [
      "gl/033386_gl.png",
      "ce/033386_ce.png",
      "ours/033386_ours.png"
    ],
    "rank_data": [
      2,
      1,
      0
    ],
    "rank_result": [
      "ours/033386_ours.png",
      "ce/033386_ce.png",
      "gl/033386_gl.png"
    ],
    "rt": 7310,
    "trial_type": "image-rank",
    "trial_index": 55,
    "time_elapsed": 426850,
    "internal_node_id": "0.0-55.0"
  },
  {
    "src": [
      "ours/029148_ours.png",
      "ce/029148_ce.png",
      "gl/029148_gl.png"
    ],
    "rank_data": [
      0,
      1,
      2
    ],
    "rank_result": [
      "ours/029148_ours.png",
      "ce/029148_ce.png",
      "gl/029148_gl.png"
    ],
    "rt": 8786,
    "trial_type": "image-rank",
    "trial_index": 56,
    "time_elapsed": 435638,
    "internal_node_id": "0.0-56.0"
  },
  {
    "src": [
      "ours/082245_ours.png",
      "ce/082245_ce.png",
      "gl/082245_gl.png"
    ],
    "rank_data": [
      0,
      2,
      1
    ],
    "rank_result": [
      "ours/082245_ours.png",
      "gl/082245_gl.png",
      "ce/082245_ce.png"
    ],
    "rt": 6435,
    "trial_type": "image-rank",
    "trial_index": 57,
    "time_elapsed": 442074,
    "internal_node_id": "0.0-57.0"
  },
  {
    "src": [
      "ce/086825_ce.png",
      "ours/086825_ours.png",
      "gl/086825_gl.png"
    ],
    "rank_data": [
      2,
      0,
      1
    ],
    "rank_result": [
      "ours/086825_ours.png",
      "gl/086825_gl.png",
      "ce/086825_ce.png"
    ],
    "rt": 5274,
    "trial_type": "image-rank",
    "trial_index": 58,
    "time_elapsed": 447348,
    "internal_node_id": "0.0-58.0"
  },
  {
    "src": [
      "ce/154940_ce.png",
      "ours/154940_ours.png",
      "gl/154940_gl.png"
    ],
    "rank_data": [
      2,
      0,
      1
    ],
    "rank_result": [
      "ours/154940_ours.png",
      "gl/154940_gl.png",
      "ce/154940_ce.png"
    ],
    "rt": 7939,
    "trial_type": "image-rank",
    "trial_index": 59,
    "time_elapsed": 455287,
    "internal_node_id": "0.0-59.0"
  },
  {
    "src": [
      "ce/030272_ce.png",
      "ours/030272_ours.png",
      "gl/030272_gl.png"
    ],
    "rank_data": [
      2,
      0,
      1
    ],
    "rank_result": [
      "ours/030272_ours.png",
      "gl/030272_gl.png",
      "ce/030272_ce.png"
    ],
    "rt": 5708,
    "trial_type": "image-rank",
    "trial_index": 60,
    "time_elapsed": 460996,
    "internal_node_id": "0.0-60.0"
  },
  {
    "src": [
      "ours/070276_ours.png",
      "gl/070276_gl.png",
      "ce/070276_ce.png"
    ],
    "rank_data": [
      0,
      1,
      2
    ],
    "rank_result": [
      "ours/070276_ours.png",
      "gl/070276_gl.png",
      "ce/070276_ce.png"
    ],
    "rt": 10149,
    "trial_type": "image-rank",
    "trial_index": 61,
    "time_elapsed": 471145,
    "internal_node_id": "0.0-61.0"
  },
  {
    "src": [
      "gl/197795_gl.png",
      "ours/197795_ours.png",
      "ce/197795_ce.png"
    ],
    "rank_data": [
      2,
      0,
      1
    ],
    "rank_result": [
      "ours/197795_ours.png",
      "ce/197795_ce.png",
      "gl/197795_gl.png"
    ],
    "rt": 7063,
    "trial_type": "image-rank",
    "trial_index": 62,
    "time_elapsed": 478208,
    "internal_node_id": "0.0-62.0"
  },
  {
    "src": [
      "ours/127486_ours.png",
      "gl/127486_gl.png",
      "ce/127486_ce.png"
    ],
    "rank_data": [
      0,
      2,
      1
    ],
    "rank_result": [
      "ours/127486_ours.png",
      "ce/127486_ce.png",
      "gl/127486_gl.png"
    ],
    "rt": 4563,
    "trial_type": "image-rank",
    "trial_index": 63,
    "time_elapsed": 482773,
    "internal_node_id": "0.0-63.0"
  },
  {
    "src": [
      "ours/151091_ours.png",
      "gl/151091_gl.png",
      "ce/151091_ce.png"
    ],
    "rank_data": [
      0,
      1,
      2
    ],
    "rank_result": [
      "ours/151091_ours.png",
      "gl/151091_gl.png",
      "ce/151091_ce.png"
    ],
    "rt": 6098,
    "trial_type": "image-rank",
    "trial_index": 64,
    "time_elapsed": 488871,
    "internal_node_id": "0.0-64.0"
  },
  {
    "src": [
      "gl/097839_gl.png",
      "ce/097839_ce.png",
      "ours/097839_ours.png"
    ],
    "rank_data": [
      2,
      1,
      0
    ],
    "rank_result": [
      "ours/097839_ours.png",
      "ce/097839_ce.png",
      "gl/097839_gl.png"
    ],
    "rt": 9007,
    "trial_type": "image-rank",
    "trial_index": 65,
    "time_elapsed": 497878,
    "internal_node_id": "0.0-65.0"
  },
  {
    "src": [
      "ours/179360_ours.png",
      "gl/179360_gl.png",
      "ce/179360_ce.png"
    ],
    "rank_data": [
      0,
      2,
      1
    ],
    "rank_result": [
      "ours/179360_ours.png",
      "ce/179360_ce.png",
      "gl/179360_gl.png"
    ],
    "rt": 9587,
    "trial_type": "image-rank",
    "trial_index": 66,
    "time_elapsed": 507465,
    "internal_node_id": "0.0-66.0"
  },
  {
    "src": [
      "ce/156093_ce.png",
      "ours/156093_ours.png",
      "gl/156093_gl.png"
    ],
    "rank_data": [
      1,
      0,
      2
    ],
    "rank_result": [
      "ours/156093_ours.png",
      "ce/156093_ce.png",
      "gl/156093_gl.png"
    ],
    "rt": 14715,
    "trial_type": "image-rank",
    "trial_index": 67,
    "time_elapsed": 522181,
    "internal_node_id": "0.0-67.0"
  },
  {
    "src": [
      "ours/002396_ours.png",
      "ce/002396_ce.png",
      "gl/002396_gl.png"
    ],
    "rank_data": [
      0,
      1,
      2
    ],
    "rank_result": [
      "ours/002396_ours.png",
      "ce/002396_ce.png",
      "gl/002396_gl.png"
    ],
    "rt": 7215,
    "trial_type": "image-rank",
    "trial_index": 68,
    "time_elapsed": 529396,
    "internal_node_id": "0.0-68.0"
  },
  {
    "src": [
      "ce/011002_ce.png",
      "gl/011002_gl.png",
      "ours/011002_ours.png"
    ],
    "rank_data": [
      1,
      2,
      0
    ],
    "rank_result": [
      "ours/011002_ours.png",
      "ce/011002_ce.png",
      "gl/011002_gl.png"
    ],
    "rt": 16510,
    "trial_type": "image-rank",
    "trial_index": 69,
    "time_elapsed": 545906,
    "internal_node_id": "0.0-69.0"
  },
  {
    "src": [
      "gl/013292_gl.png",
      "ce/013292_ce.png",
      "ours/013292_ours.png"
    ],
    "rank_data": [
      1,
      2,
      0
    ],
    "rank_result": [
      "ours/013292_ours.png",
      "gl/013292_gl.png",
      "ce/013292_ce.png"
    ],
    "rt": 11838,
    "trial_type": "image-rank",
    "trial_index": 70,
    "time_elapsed": 557744,
    "internal_node_id": "0.0-70.0"
  },
  {
    "src": [
      "gl/022875_gl.png",
      "ours/022875_ours.png",
      "ce/022875_ce.png"
    ],
    "rank_data": [
      1,
      0,
      2
    ],
    "rank_result": [
      "ours/022875_ours.png",
      "gl/022875_gl.png",
      "ce/022875_ce.png"
    ],
    "rt": 9331,
    "trial_type": "image-rank",
    "trial_index": 71,
    "time_elapsed": 567075,
    "internal_node_id": "0.0-71.0"
  },
  {
    "src": [
      "ce/103867_ce.png",
      "gl/103867_gl.png",
      "ours/103867_ours.png"
    ],
    "rank_data": [
      1,
      2,
      0
    ],
    "rank_result": [
      "ours/103867_ours.png",
      "ce/103867_ce.png",
      "gl/103867_gl.png"
    ],
    "rt": 6107,
    "trial_type": "image-rank",
    "trial_index": 72,
    "time_elapsed": 573183,
    "internal_node_id": "0.0-72.0"
  },
  {
    "src": [
      "gl/096877_gl.png",
      "ce/096877_ce.png",
      "ours/096877_ours.png"
    ],
    "rank_data": [
      2,
      1,
      0
    ],
    "rank_result": [
      "ours/096877_ours.png",
      "ce/096877_ce.png",
      "gl/096877_gl.png"
    ],
    "rt": 7581,
    "trial_type": "image-rank",
    "trial_index": 73,
    "time_elapsed": 580764,
    "internal_node_id": "0.0-73.0"
  },
  {
    "src": [
      "gl/036619_gl.png",
      "ce/036619_ce.png",
      "ours/036619_ours.png"
    ],
    "rank_data": [
      2,
      1,
      0
    ],
    "rank_result": [
      "ours/036619_ours.png",
      "ce/036619_ce.png",
      "gl/036619_gl.png"
    ],
    "rt": 10154,
    "trial_type": "image-rank",
    "trial_index": 74,
    "time_elapsed": 590918,
    "internal_node_id": "0.0-74.0"
  },
  {
    "src": [
      "gl/082453_gl.png",
      "ours/082453_ours.png",
      "ce/082453_ce.png"
    ],
    "rank_data": [
      1,
      0,
      2
    ],
    "rank_result": [
      "ours/082453_ours.png",
      "gl/082453_gl.png",
      "ce/082453_ce.png"
    ],
    "rt": 8451,
    "trial_type": "image-rank",
    "trial_index": 75,
    "time_elapsed": 599370,
    "internal_node_id": "0.0-75.0"
  },
  {
    "src": [
      "gl/012861_gl.png",
      "ce/012861_ce.png",
      "ours/012861_ours.png"
    ],
    "rank_data": [
      2,
      1,
      0
    ],
    "rank_result": [
      "ours/012861_ours.png",
      "ce/012861_ce.png",
      "gl/012861_gl.png"
    ],
    "rt": 8981,
    "trial_type": "image-rank",
    "trial_index": 76,
    "time_elapsed": 608352,
    "internal_node_id": "0.0-76.0"
  },
  {
    "src": [
      "gl/069259_gl.png",
      "ours/069259_ours.png",
      "ce/069259_ce.png"
    ],
    "rank_data": [
      2,
      0,
      1
    ],
    "rank_result": [
      "ours/069259_ours.png",
      "ce/069259_ce.png",
      "gl/069259_gl.png"
    ],
    "rt": 7609,
    "trial_type": "image-rank",
    "trial_index": 77,
    "time_elapsed": 615962,
    "internal_node_id": "0.0-77.0"
  },
  {
    "src": [
      "gl/000622_gl.png",
      "ce/000622_ce.png",
      "ours/000622_ours.png"
    ],
    "rank_data": [
      2,
      1,
      0
    ],
    "rank_result": [
      "ours/000622_ours.png",
      "ce/000622_ce.png",
      "gl/000622_gl.png"
    ],
    "rt": 5643,
    "trial_type": "image-rank",
    "trial_index": 78,
    "time_elapsed": 621606,
    "internal_node_id": "0.0-78.0"
  },
  {
    "src": [
      "gl/027423_gl.png",
      "ce/027423_ce.png",
      "ours/027423_ours.png"
    ],
    "rank_data": [
      2,
      1,
      0
    ],
    "rank_result": [
      "ours/027423_ours.png",
      "ce/027423_ce.png",
      "gl/027423_gl.png"
    ],
    "rt": 7586,
    "trial_type": "image-rank",
    "trial_index": 79,
    "time_elapsed": 629192,
    "internal_node_id": "0.0-79.0"
  },
  {
    "src": [
      "gl/076139_gl.png",
      "ours/076139_ours.png",
      "ce/076139_ce.png"
    ],
    "rank_data": [
      2,
      1,
      0
    ],
    "rank_result": [
      "ce/076139_ce.png",
      "ours/076139_ours.png",
      "gl/076139_gl.png"
    ],
    "rt": 27270,
    "trial_type": "image-rank",
    "trial_index": 80,
    "time_elapsed": 656462,
    "internal_node_id": "0.0-80.0"
  },
  {
    "src": [
      "ours/068390_ours.png",
      "ce/068390_ce.png",
      "gl/068390_gl.png"
    ],
    "rank_data": [
      1,
      2,
      0
    ],
    "rank_result": [
      "gl/068390_gl.png",
      "ours/068390_ours.png",
      "ce/068390_ce.png"
    ],
    "rt": 15162,
    "trial_type": "image-rank",
    "trial_index": 81,
    "time_elapsed": 671624,
    "internal_node_id": "0.0-81.0"
  },
  {
    "src": [
      "ce/187724_ce.png",
      "gl/187724_gl.png",
      "ours/187724_ours.png"
    ],
    "rank_data": [
      1,
      2,
      0
    ],
    "rank_result": [
      "ours/187724_ours.png",
      "ce/187724_ce.png",
      "gl/187724_gl.png"
    ],
    "rt": 4912,
    "trial_type": "image-rank",
    "trial_index": 82,
    "time_elapsed": 676537,
    "internal_node_id": "0.0-82.0"
  },
  {
    "src": [
      "ce/154368_ce.png",
      "gl/154368_gl.png",
      "ours/154368_ours.png"
    ],
    "rank_data": [
      2,
      1,
      0
    ],
    "rank_result": [
      "ours/154368_ours.png",
      "gl/154368_gl.png",
      "ce/154368_ce.png"
    ],
    "rt": 5843,
    "trial_type": "image-rank",
    "trial_index": 83,
    "time_elapsed": 682380,
    "internal_node_id": "0.0-83.0"
  },
  {
    "src": [
      "gl/132089_gl.png",
      "ours/132089_ours.png",
      "ce/132089_ce.png"
    ],
    "rank_data": [
      1,
      0,
      2
    ],
    "rank_result": [
      "ours/132089_ours.png",
      "gl/132089_gl.png",
      "ce/132089_ce.png"
    ],
    "rt": 8859,
    "trial_type": "image-rank",
    "trial_index": 84,
    "time_elapsed": 691240,
    "internal_node_id": "0.0-84.0"
  },
  {
    "src": [
      "ce/113024_ce.png",
      "ours/113024_ours.png",
      "gl/113024_gl.png"
    ],
    "rank_data": [
      2,
      0,
      1
    ],
    "rank_result": [
      "ours/113024_ours.png",
      "gl/113024_gl.png",
      "ce/113024_ce.png"
    ],
    "rt": 10404,
    "trial_type": "image-rank",
    "trial_index": 85,
    "time_elapsed": 701644,
    "internal_node_id": "0.0-85.0"
  },
  {
    "src": [
      "ours/086113_ours.png",
      "gl/086113_gl.png",
      "ce/086113_ce.png"
    ],
    "rank_data": [
      0,
      1,
      2
    ],
    "rank_result": [
      "ours/086113_ours.png",
      "gl/086113_gl.png",
      "ce/086113_ce.png"
    ],
    "rt": 6238,
    "trial_type": "image-rank",
    "trial_index": 86,
    "time_elapsed": 707882,
    "internal_node_id": "0.0-86.0"
  },
  {
    "src": [
      "ours/108144_ours.png",
      "gl/108144_gl.png",
      "ce/108144_ce.png"
    ],
    "rank_data": [
      0,
      1,
      2
    ],
    "rank_result": [
      "ours/108144_ours.png",
      "gl/108144_gl.png",
      "ce/108144_ce.png"
    ],
    "rt": 6273,
    "trial_type": "image-rank",
    "trial_index": 87,
    "time_elapsed": 714156,
    "internal_node_id": "0.0-87.0"
  },
  {
    "src": [
      "ce/013902_ce.png",
      "ours/013902_ours.png",
      "gl/013902_gl.png"
    ],
    "rank_data": [
      1,
      0,
      2
    ],
    "rank_result": [
      "ours/013902_ours.png",
      "ce/013902_ce.png",
      "gl/013902_gl.png"
    ],
    "rt": 5578,
    "trial_type": "image-rank",
    "trial_index": 88,
    "time_elapsed": 719734,
    "internal_node_id": "0.0-88.0"
  },
  {
    "src": [
      "ce/129013_ce.png",
      "ours/129013_ours.png",
      "gl/129013_gl.png"
    ],
    "rank_data": [
      2,
      0,
      1
    ],
    "rank_result": [
      "ours/129013_ours.png",
      "gl/129013_gl.png",
      "ce/129013_ce.png"
    ],
    "rt": 19993,
    "trial_type": "image-rank",
    "trial_index": 89,
    "time_elapsed": 739727,
    "internal_node_id": "0.0-89.0"
  },
  {
    "src": [
      "ce/102380_ce.png",
      "gl/102380_gl.png",
      "ours/102380_ours.png"
    ],
    "rank_data": [
      1,
      2,
      0
    ],
    "rank_result": [
      "ours/102380_ours.png",
      "ce/102380_ce.png",
      "gl/102380_gl.png"
    ],
    "rt": 4151,
    "trial_type": "image-rank",
    "trial_index": 90,
    "time_elapsed": 743880,
    "internal_node_id": "0.0-90.0"
  },
  {
    "src": [
      "gl/037802_gl.png",
      "ce/037802_ce.png",
      "ours/037802_ours.png"
    ],
    "rank_data": [
      2,
      1,
      0
    ],
    "rank_result": [
      "ours/037802_ours.png",
      "ce/037802_ce.png",
      "gl/037802_gl.png"
    ],
    "rt": 6639,
    "trial_type": "image-rank",
    "trial_index": 91,
    "time_elapsed": 750520,
    "internal_node_id": "0.0-91.0"
  },
  {
    "src": [
      "gl/037491_gl.png",
      "ce/037491_ce.png",
      "ours/037491_ours.png"
    ],
    "rank_data": [
      1,
      2,
      0
    ],
    "rank_result": [
      "ours/037491_ours.png",
      "gl/037491_gl.png",
      "ce/037491_ce.png"
    ],
    "rt": 3971,
    "trial_type": "image-rank",
    "trial_index": 92,
    "time_elapsed": 754491,
    "internal_node_id": "0.0-92.0"
  },
  {
    "src": [
      "ce/028867_ce.png",
      "ours/028867_ours.png",
      "gl/028867_gl.png"
    ],
    "rank_data": [
      2,
      0,
      1
    ],
    "rank_result": [
      "ours/028867_ours.png",
      "gl/028867_gl.png",
      "ce/028867_ce.png"
    ],
    "rt": 5647,
    "trial_type": "image-rank",
    "trial_index": 93,
    "time_elapsed": 760139,
    "internal_node_id": "0.0-93.0"
  },
  {
    "src": [
      "ours/171635_ours.png",
      "ce/171635_ce.png",
      "gl/171635_gl.png"
    ],
    "rank_data": [
      0,
      1,
      2
    ],
    "rank_result": [
      "ours/171635_ours.png",
      "ce/171635_ce.png",
      "gl/171635_gl.png"
    ],
    "rt": 9681,
    "trial_type": "image-rank",
    "trial_index": 94,
    "time_elapsed": 769820,
    "internal_node_id": "0.0-94.0"
  },
  {
    "src": [
      "ce/198523_ce.png",
      "gl/198523_gl.png",
      "ours/198523_ours.png"
    ],
    "rank_data": [
      1,
      2,
      0
    ],
    "rank_result": [
      "ours/198523_ours.png",
      "ce/198523_ce.png",
      "gl/198523_gl.png"
    ],
    "rt": 10431,
    "trial_type": "image-rank",
    "trial_index": 95,
    "time_elapsed": 780252,
    "internal_node_id": "0.0-95.0"
  },
  {
    "src": [
      "ours/126817_ours.png",
      "ce/126817_ce.png",
      "gl/126817_gl.png"
    ],
    "rank_data": [
      0,
      2,
      1
    ],
    "rank_result": [
      "ours/126817_ours.png",
      "gl/126817_gl.png",
      "ce/126817_ce.png"
    ],
    "rt": 5935,
    "trial_type": "image-rank",
    "trial_index": 96,
    "time_elapsed": 786187,
    "internal_node_id": "0.0-96.0"
  },
  {
    "src": [
      "gl/150030_gl.png",
      "ours/150030_ours.png",
      "ce/150030_ce.png"
    ],
    "rank_data": [
      2,
      0,
      1
    ],
    "rank_result": [
      "ours/150030_ours.png",
      "ce/150030_ce.png",
      "gl/150030_gl.png"
    ],
    "rt": 36334,
    "trial_type": "image-rank",
    "trial_index": 97,
    "time_elapsed": 822522,
    "internal_node_id": "0.0-97.0"
  },
  {
    "src": [
      "ours/186799_ours.png",
      "gl/186799_gl.png",
      "ce/186799_ce.png"
    ],
    "rank_data": [
      0,
      2,
      1
    ],
    "rank_result": [
      "ours/186799_ours.png",
      "ce/186799_ce.png",
      "gl/186799_gl.png"
    ],
    "rt": 6020,
    "trial_type": "image-rank",
    "trial_index": 98,
    "time_elapsed": 828542,
    "internal_node_id": "0.0-98.0"
  },
  {
    "src": [
      "ours/085753_ours.png",
      "ce/085753_ce.png",
      "gl/085753_gl.png"
    ],
    "rank_data": [
      0,
      1,
      2
    ],
    "rank_result": [
      "ours/085753_ours.png",
      "ce/085753_ce.png",
      "gl/085753_gl.png"
    ],
    "rt": 4742,
    "trial_type": "image-rank",
    "trial_index": 99,
    "time_elapsed": 833284,
    "internal_node_id": "0.0-99.0"
  },
  {
    "src": [
      "ours/096318_ours.png",
      "ce/096318_ce.png",
      "gl/096318_gl.png"
    ],
    "rank_data": [
      0,
      1,
      2
    ],
    "rank_result": [
      "ours/096318_ours.png",
      "ce/096318_ce.png",
      "gl/096318_gl.png"
    ],
    "rt": 19085,
    "trial_type": "image-rank",
    "trial_index": 100,
    "time_elapsed": 852370,
    "internal_node_id": "0.0-100.0"
  },
  {
    "src": [
      "ce/172161_ce.png",
      "ours/172161_ours.png",
      "gl/172161_gl.png"
    ],
    "rank_data": [
      1,
      0,
      2
    ],
    "rank_result": [
      "ours/172161_ours.png",
      "ce/172161_ce.png",
      "gl/172161_gl.png"
    ],
    "rt": 22742,
    "trial_type": "image-rank",
    "trial_index": 101,
    "time_elapsed": 875112,
    "internal_node_id": "0.0-101.0"
  },
  {
    "src": [
      "ce/014002_ce.png",
      "gl/014002_gl.png",
      "ours/014002_ours.png"
    ],
    "rank_data": [
      2,
      1,
      0
    ],
    "rank_result": [
      "ours/014002_ours.png",
      "gl/014002_gl.png",
      "ce/014002_ce.png"
    ],
    "rt": 7070,
    "trial_type": "image-rank",
    "trial_index": 102,
    "time_elapsed": 882183,
    "internal_node_id": "0.0-102.0"
  }
]