[
  {
    "rt": 31598,
    "stimulus": "Welcome to the experiment. Press any key to begin.",
    "key_press": 13,
    "trial_type": "html-keyboard-response",
    "trial_index": 0,
    "time_elapsed": 31600,
    "internal_node_id": "0.0-0.0"
  },
  {
    "rt": 1247,
    "stimulus": "<p>In this experiment, three images of people will appear in the center of the screen.</p><p>Your task is to rank these images based on how <strong>real</strong> you think they are.<p>The ranking level is between 1 to 3, with <strong>1</strong> representing the most real one and <strong>3</strong> the fakest one.</p><p>The time to rank is not limited. When you finish ranking, click the <strong>Continue</strong> button to continue.</p>",
    "key_press": 13,
    "trial_type": "html-keyboard-response",
    "trial_index": 1,
    "time_elapsed": 32848,
    "internal_node_id": "0.0-1.0"
  },
  {
    "rt": null,
    "stimulus": "<div style=\"font-size:60px;\"></div>",
    "key_press": null,
    "label": "fixation",
    "trial_type": "html-keyboard-response",
    "trial_index": 2,
    "time_elapsed": 33851,
    "internal_node_id": "0.0-2.0"
  },
  {
    "src": [
      "ce/023087_ce.png",
      "ours/023087_ours.png",
      "gl/023087_gl.png"
    ],
    "rank_data": [
      1,
      0,
      2
    ],
    "rank_result": [
      "ours/023087_ours.png",
      "ce/023087_ce.png",
      "gl/023087_gl.png"
    ],
    "rt": 13777,
    "trial_type": "image-rank",
    "trial_index": 3,
    "time_elapsed": 47628,
    "internal_node_id": "0.0-3.0"
  },
  {
    "src": [
      "ce/085587_ce.png",
      "ours/085587_ours.png",
      "gl/085587_gl.png"
    ],
    "rank_data": [
      2,
      1,
      0
    ],
    "rank_result": [
      "gl/085587_gl.png",
      "ours/085587_ours.png",
      "ce/085587_ce.png"
    ],
    "rt": 14800,
    "trial_type": "image-rank",
    "trial_index": 4,
    "time_elapsed": 62428,
    "internal_node_id": "0.0-4.0"
  },
  {
    "src": [
      "gl/002700_gl.png",
      "ce/002700_ce.png",
      "ours/002700_ours.png"
    ],
    "rank_data": [
      2,
      1,
      0
    ],
    "rank_result": [
      "ours/002700_ours.png",
      "ce/002700_ce.png",
      "gl/002700_gl.png"
    ],
    "rt": 28831,
    "trial_type": "image-rank",
    "trial_index": 5,
    "time_elapsed": 91259,
    "internal_node_id": "0.0-5.0"
  },
  {
    "src": [
      "ce/003464_ce.png",
      "gl/003464_gl.png",
      "ours/003464_ours.png"
    ],
    "rank_data": [
      1,
      2,
      0
    ],
    "rank_result": [
      "ours/003464_ours.png",
      "ce/003464_ce.png",
      "gl/003464_gl.png"
    ],
    "rt": 6040,
    "trial_type": "image-rank",
    "trial_index": 6,
    "time_elapsed": 97299,
    "internal_node_id": "0.0-6.0"
  },
  {
    "src": [
      "gl/097273_gl.png",
      "ce/097273_ce.png",
      "ours/097273_ours.png"
    ],
    "rank_data": [
      1,
      2,
      0
    ],
    "rank_result": [
      "ours/097273_ours.png",
      "gl/097273_gl.png",
      "ce/097273_ce.png"
    ],
    "rt": 8775,
    "trial_type": "image-rank",
    "trial_index": 7,
    "time_elapsed": 106075,
    "internal_node_id": "0.0-7.0"
  },
  {
    "src": [
      "ce/167704_ce.png",
      "ours/167704_ours.png",
      "gl/167704_gl.png"
    ],
    "rank_data": [
      1,
      0,
      2
    ],
    "rank_result": [
      "ours/167704_ours.png",
      "ce/167704_ce.png",
      "gl/167704_gl.png"
    ],
    "rt": 8111,
    "trial_type": "image-rank",
    "trial_index": 8,
    "time_elapsed": 114187,
    "internal_node_id": "0.0-8.0"
  },
  {
    "src": [
      "gl/030272_gl.png",
      "ce/030272_ce.png",
      "ours/030272_ours.png"
    ],
    "rank_data": [
      1,
      2,
      0
    ],
    "rank_result": [
      "ours/030272_ours.png",
      "gl/030272_gl.png",
      "ce/030272_ce.png"
    ],
    "rt": 7679,
    "trial_type": "image-rank",
    "trial_index": 9,
    "time_elapsed": 121866,
    "internal_node_id": "0.0-9.0"
  },
  {
    "src": [
      "ce/091363_ce.png",
      "ours/091363_ours.png",
      "gl/091363_gl.png"
    ],
    "rank_data": [
      2,
      0,
      1
    ],
    "rank_result": [
      "ours/091363_ours.png",
      "gl/091363_gl.png",
      "ce/091363_ce.png"
    ],
    "rt": 7912,
    "trial_type": "image-rank",
    "trial_index": 10,
    "time_elapsed": 129779,
    "internal_node_id": "0.0-10.0"
  },
  {
    "src": [
      "ours/073274_ours.png",
      "gl/073274_gl.png",
      "ce/073274_ce.png"
    ],
    "rank_data": [
      0,
      1,
      2
    ],
    "rank_result": [
      "ours/073274_ours.png",
      "gl/073274_gl.png",
      "ce/073274_ce.png"
    ],
    "rt": 5623,
    "trial_type": "image-rank",
    "trial_index": 11,
    "time_elapsed": 135403,
    "internal_node_id": "0.0-11.0"
  },
  {
    "src": [
      "ours/141293_ours.png",
      "ce/141293_ce.png",
      "gl/141293_gl.png"
    ],
    "rank_data": [
      0,
      1,
      2
    ],
    "rank_result": [
      "ours/141293_ours.png",
      "ce/141293_ce.png",
      "gl/141293_gl.png"
    ],
    "rt": 5471,
    "trial_type": "image-rank",
    "trial_index": 12,
    "time_elapsed": 140875,
    "internal_node_id": "0.0-12.0"
  },
  {
    "src": [
      "ce/023936_ce.png",
      "gl/023936_gl.png",
      "ours/023936_ours.png"
    ],
    "rank_data": [
      2,
      1,
      0
    ],
    "rank_result": [
      "ours/023936_ours.png",
      "gl/023936_gl.png",
      "ce/023936_ce.png"
    ],
    "rt": 4775,
    "trial_type": "image-rank",
    "trial_index": 13,
    "time_elapsed": 145651,
    "internal_node_id": "0.0-13.0"
  },
  {
    "src": [
      "ours/075566_ours.png",
      "gl/075566_gl.png",
      "ce/075566_ce.png"
    ],
    "rank_data": [
      0,
      1,
      2
    ],
    "rank_result": [
      "ours/075566_ours.png",
      "gl/075566_gl.png",
      "ce/075566_ce.png"
    ],
    "rt": 10056,
    "trial_type": "image-rank",
    "trial_index": 14,
    "time_elapsed": 155707,
    "internal_node_id": "0.0-14.0"
  },
  {
    "src": [
      "ours/167129_ours.png",
      "ce/167129_ce.png",
      "gl/167129_gl.png"
    ],
    "rank_data": [
      0,
      1,
      2
    ],
    "rank_result": [
      "ours/167129_ours.png",
      "ce/167129_ce.png",
      "gl/167129_gl.png"
    ],
    "rt": 6582,
    "trial_type": "image-rank",
    "trial_index": 15,
    "time_elapsed": 162290,
    "internal_node_id": "0.0-15.0"
  },
  {
    "src": [
      "ce/163728_ce.png",
      "gl/163728_gl.png",
      "ours/163728_ours.png"
    ],
    "rank_data": [
      2,
      1,
      0
    ],
    "rank_result": [
      "ours/163728_ours.png",
      "gl/163728_gl.png",
      "ce/163728_ce.png"
    ],
    "rt": 5112,
    "trial_type": "image-rank",
    "trial_index": 16,
    "time_elapsed": 167402,
    "internal_node_id": "0.0-16.0"
  },
  {
    "src": [
      "ours/169159_ours.png",
      "gl/169159_gl.png",
      "ce/169159_ce.png"
    ],
    "rank_data": [
      0,
      2,
      1
    ],
    "rank_result": [
      "ours/169159_ours.png",
      "ce/169159_ce.png",
      "gl/169159_gl.png"
    ],
    "rt": 5904,
    "trial_type": "image-rank",
    "trial_index": 17,
    "time_elapsed": 173306,
    "internal_node_id": "0.0-17.0"
  },
  {
    "src": [
      "ours/182290_ours.png",
      "ce/182290_ce.png",
      "gl/182290_gl.png"
    ],
    "rank_data": [
      2,
      0,
      1
    ],
    "rank_result": [
      "ce/182290_ce.png",
      "gl/182290_gl.png",
      "ours/182290_ours.png"
    ],
    "rt": 12375,
    "trial_type": "image-rank",
    "trial_index": 18,
    "time_elapsed": 185681,
    "internal_node_id": "0.0-18.0"
  },
  {
    "src": [
      "gl/199938_gl.png",
      "ce/199938_ce.png",
      "ours/199938_ours.png"
    ],
    "rank_data": [
      1,
      2,
      0
    ],
    "rank_result": [
      "ours/199938_ours.png",
      "gl/199938_gl.png",
      "ce/199938_ce.png"
    ],
    "rt": 9600,
    "trial_type": "image-rank",
    "trial_index": 19,
    "time_elapsed": 195282,
    "internal_node_id": "0.0-19.0"
  },
  {
    "src": [
      "ours/170921_ours.png",
      "ce/170921_ce.png",
      "gl/170921_gl.png"
    ],
    "rank_data": [
      0,
      2,
      1
    ],
    "rank_result": [
      "ours/170921_ours.png",
      "gl/170921_gl.png",
      "ce/170921_ce.png"
    ],
    "rt": 25951,
    "trial_type": "image-rank",
    "trial_index": 20,
    "time_elapsed": 221233,
    "internal_node_id": "0.0-20.0"
  },
  {
    "src": [
      "gl/115703_gl.png",
      "ours/115703_ours.png",
      "ce/115703_ce.png"
    ],
    "rank_data": [
      1,
      0,
      2
    ],
    "rank_result": [
      "ours/115703_ours.png",
      "gl/115703_gl.png",
      "ce/115703_ce.png"
    ],
    "rt": 9055,
    "trial_type": "image-rank",
    "trial_index": 21,
    "time_elapsed": 230289,
    "internal_node_id": "0.0-21.0"
  },
  {
    "src": [
      "ours/129462_ours.png",
      "ce/129462_ce.png",
      "gl/129462_gl.png"
    ],
    "rank_data": [
      0,
      1,
      2
    ],
    "rank_result": [
      "ours/129462_ours.png",
      "ce/129462_ce.png",
      "gl/129462_gl.png"
    ],
    "rt": 6888,
    "trial_type": "image-rank",
    "trial_index": 22,
    "time_elapsed": 237177,
    "internal_node_id": "0.0-22.0"
  },
  {
    "src": [
      "ours/074568_ours.png",
      "gl/074568_gl.png",
      "ce/074568_ce.png"
    ],
    "rank_data": [
      1,
      2,
      0
    ],
    "rank_result": [
      "ce/074568_ce.png",
      "ours/074568_ours.png",
      "gl/074568_gl.png"
    ],
    "rt": 9854,
    "trial_type": "image-rank",
    "trial_index": 23,
    "time_elapsed": 247032,
    "internal_node_id": "0.0-23.0"
  },
  {
    "src": [
      "ce/010821_ce.png",
      "gl/010821_gl.png",
      "ours/010821_ours.png"
    ],
    "rank_data": [
      2,
      1,
      0
    ],
    "rank_result": [
      "ours/010821_ours.png",
      "gl/010821_gl.png",
      "ce/010821_ce.png"
    ],
    "rt": 12232,
    "trial_type": "image-rank",
    "trial_index": 24,
    "time_elapsed": 259264,
    "internal_node_id": "0.0-24.0"
  },
  {
    "src": [
      "ours/015008_ours.png",
      "gl/015008_gl.png",
      "ce/015008_ce.png"
    ],
    "rank_data": [
      1,
      0,
      2
    ],
    "rank_result": [
      "gl/015008_gl.png",
      "ours/015008_ours.png",
      "ce/015008_ce.png"
    ],
    "rt": 6352,
    "trial_type": "image-rank",
    "trial_index": 25,
    "time_elapsed": 265616,
    "internal_node_id": "0.0-25.0"
  },
  {
    "src": [
      "gl/177710_gl.png",
      "ce/177710_ce.png",
      "ours/177710_ours.png"
    ],
    "rank_data": [
      1,
      2,
      0
    ],
    "rank_result": [
      "ours/177710_ours.png",
      "gl/177710_gl.png",
      "ce/177710_ce.png"
    ],
    "rt": 4856,
    "trial_type": "image-rank",
    "trial_index": 26,
    "time_elapsed": 270472,
    "internal_node_id": "0.0-26.0"
  },
  {
    "src": [
      "ours/021796_ours.png",
      "ce/021796_ce.png",
      "gl/021796_gl.png"
    ],
    "rank_data": [
      0,
      1,
      2
    ],
    "rank_result": [
      "ours/021796_ours.png",
      "ce/021796_ce.png",
      "gl/021796_gl.png"
    ],
    "rt": 6703,
    "trial_type": "image-rank",
    "trial_index": 27,
    "time_elapsed": 277175,
    "internal_node_id": "0.0-27.0"
  },
  {
    "src": [
      "ours/085777_ours.png",
      "ce/085777_ce.png",
      "gl/085777_gl.png"
    ],
    "rank_data": [
      0,
      2,
      1
    ],
    "rank_result": [
      "ours/085777_ours.png",
      "gl/085777_gl.png",
      "ce/085777_ce.png"
    ],
    "rt": 7080,
    "trial_type": "image-rank",
    "trial_index": 28,
    "time_elapsed": 284255,
    "internal_node_id": "0.0-28.0"
  },
  {
    "src": [
      "gl/083931_gl.png",
      "ce/083931_ce.png",
      "ours/083931_ours.png"
    ],
    "rank_data": [
      1,
      2,
      0
    ],
    "rank_result": [
      "ours/083931_ours.png",
      "gl/083931_gl.png",
      "ce/083931_ce.png"
    ],
    "rt": 9176,
    "trial_type": "image-rank",
    "trial_index": 29,
    "time_elapsed": 293432,
    "internal_node_id": "0.0-29.0"
  },
  {
    "src": [
      "gl/184650_gl.png",
      "ce/184650_ce.png",
      "ours/184650_ours.png"
    ],
    "rank_data": [
      2,
      0,
      1
    ],
    "rank_result": [
      "ce/184650_ce.png",
      "ours/184650_ours.png",
      "gl/184650_gl.png"
    ],
    "rt": 8703,
    "trial_type": "image-rank",
    "trial_index": 30,
    "time_elapsed": 302135,
    "internal_node_id": "0.0-30.0"
  },
  {
    "src": [
      "gl/058343_gl.png",
      "ce/058343_ce.png",
      "ours/058343_ours.png"
    ],
    "rank_data": [
      2,
      0,
      1
    ],
    "rank_result": [
      "ce/058343_ce.png",
      "ours/058343_ours.png",
      "gl/058343_gl.png"
    ],
    "rt": 9839,
    "trial_type": "image-rank",
    "trial_index": 31,
    "time_elapsed": 311975,
    "internal_node_id": "0.0-31.0"
  },
  {
    "src": [
      "ours/195483_ours.png",
      "gl/195483_gl.png",
      "ce/195483_ce.png"
    ],
    "rank_data": [
      0,
      1,
      2
    ],
    "rank_result": [
      "ours/195483_ours.png",
      "gl/195483_gl.png",
      "ce/195483_ce.png"
    ],
    "rt": 7832,
    "trial_type": "image-rank",
    "trial_index": 32,
    "time_elapsed": 319807,
    "internal_node_id": "0.0-32.0"
  },
  {
    "src": [
      "ce/107816_ce.png",
      "gl/107816_gl.png",
      "ours/107816_ours.png"
    ],
    "rank_data": [
      0,
      2,
      1
    ],
    "rank_result": [
      "ce/107816_ce.png",
      "ours/107816_ours.png",
      "gl/107816_gl.png"
    ],
    "rt": 6992,
    "trial_type": "image-rank",
    "trial_index": 33,
    "time_elapsed": 326799,
    "internal_node_id": "0.0-33.0"
  },
  {
    "src": [
      "gl/116573_gl.png",
      "ours/116573_ours.png",
      "ce/116573_ce.png"
    ],
    "rank_data": [
      2,
      1,
      0
    ],
    "rank_result": [
      "ce/116573_ce.png",
      "ours/116573_ours.png",
      "gl/116573_gl.png"
    ],
    "rt": 7455,
    "trial_type": "image-rank",
    "trial_index": 34,
    "time_elapsed": 334255,
    "internal_node_id": "0.0-34.0"
  },
  {
    "src": [
      "gl/066406_gl.png",
      "ours/066406_ours.png",
      "ce/066406_ce.png"
    ],
    "rank_data": [
      2,
      1,
      0
    ],
    "rank_result": [
      "ce/066406_ce.png",
      "ours/066406_ours.png",
      "gl/066406_gl.png"
    ],
    "rt": 6951,
    "trial_type": "image-rank",
    "trial_index": 35,
    "time_elapsed": 341207,
    "internal_node_id": "0.0-35.0"
  },
  {
    "src": [
      "gl/137139_gl.png",
      "ce/137139_ce.png",
      "ours/137139_ours.png"
    ],
    "rank_data": [
      1,
      2,
      0
    ],
    "rank_result": [
      "ours/137139_ours.png",
      "gl/137139_gl.png",
      "ce/137139_ce.png"
    ],
    "rt": 4983,
    "trial_type": "image-rank",
    "trial_index": 36,
    "time_elapsed": 346190,
    "internal_node_id": "0.0-36.0"
  },
  {
    "src": [
      "ce/148507_ce.png",
      "gl/148507_gl.png",
      "ours/148507_ours.png"
    ],
    "rank_data": [
      2,
      1,
      0
    ],
    "rank_result": [
      "ours/148507_ours.png",
      "gl/148507_gl.png",
      "ce/148507_ce.png"
    ],
    "rt": 10032,
    "trial_type": "image-rank",
    "trial_index": 37,
    "time_elapsed": 356222,
    "internal_node_id": "0.0-37.0"
  },
  {
    "src": [
      "ours/172598_ours.png",
      "ce/172598_ce.png",
      "gl/172598_gl.png"
    ],
    "rank_data": [
      0,
      2,
      1
    ],
    "rank_result": [
      "ours/172598_ours.png",
      "gl/172598_gl.png",
      "ce/172598_ce.png"
    ],
    "rt": 7472,
    "trial_type": "image-rank",
    "trial_index": 38,
    "time_elapsed": 363694,
    "internal_node_id": "0.0-38.0"
  },
  {
    "src": [
      "ours/036183_ours.png",
      "gl/036183_gl.png",
      "ce/036183_ce.png"
    ],
    "rank_data": [
      0,
      1,
      2
    ],
    "rank_result": [
      "ours/036183_ours.png",
      "gl/036183_gl.png",
      "ce/036183_ce.png"
    ],
    "rt": 4879,
    "trial_type": "image-rank",
    "trial_index": 39,
    "time_elapsed": 368574,
    "internal_node_id": "0.0-39.0"
  },
  {
    "src": [
      "ours/130842_ours.png",
      "ce/130842_ce.png",
      "gl/130842_gl.png"
    ],
    "rank_data": [
      0,
      1,
      2
    ],
    "rank_result": [
      "ours/130842_ours.png",
      "ce/130842_ce.png",
      "gl/130842_gl.png"
    ],
    "rt": 11624,
    "trial_type": "image-rank",
    "trial_index": 40,
    "time_elapsed": 380198,
    "internal_node_id": "0.0-40.0"
  },
  {
    "src": [
      "ce/097311_ce.png",
      "ours/097311_ours.png",
      "gl/097311_gl.png"
    ],
    "rank_data": [
      2,
      0,
      1
    ],
    "rank_result": [
      "ours/097311_ours.png",
      "gl/097311_gl.png",
      "ce/097311_ce.png"
    ],
    "rt": 8863,
    "trial_type": "image-rank",
    "trial_index": 41,
    "time_elapsed": 389061,
    "internal_node_id": "0.0-41.0"
  },
  {
    "src": [
      "ours/140295_ours.png",
      "gl/140295_gl.png",
      "ce/140295_ce.png"
    ],
    "rank_data": [
      0,
      2,
      1
    ],
    "rank_result": [
      "ours/140295_ours.png",
      "ce/140295_ce.png",
      "gl/140295_gl.png"
    ],
    "rt": 9728,
    "trial_type": "image-rank",
    "trial_index": 42,
    "time_elapsed": 398789,
    "internal_node_id": "0.0-42.0"
  },
  {
    "src": [
      "ce/122597_ce.png",
      "gl/122597_gl.png",
      "ours/122597_ours.png"
    ],
    "rank_data": [
      1,
      2,
      0
    ],
    "rank_result": [
      "ours/122597_ours.png",
      "ce/122597_ce.png",
      "gl/122597_gl.png"
    ],
    "rt": 10143,
    "trial_type": "image-rank",
    "trial_index": 43,
    "time_elapsed": 408933,
    "internal_node_id": "0.0-43.0"
  },
  {
    "src": [
      "gl/122908_gl.png",
      "ce/122908_ce.png",
      "ours/122908_ours.png"
    ],
    "rank_data": [
      1,
      2,
      0
    ],
    "rank_result": [
      "ours/122908_ours.png",
      "gl/122908_gl.png",
      "ce/122908_ce.png"
    ],
    "rt": 8134,
    "trial_type": "image-rank",
    "trial_index": 44,
    "time_elapsed": 417068,
    "internal_node_id": "0.0-44.0"
  },
  {
    "src": [
      "ce/101154_ce.png",
      "ours/101154_ours.png",
      "gl/101154_gl.png"
    ],
    "rank_data": [
      0,
      1,
      2
    ],
    "rank_result": [
      "ce/101154_ce.png",
      "ours/101154_ours.png",
      "gl/101154_gl.png"
    ],
    "rt": 7329,
    "trial_type": "image-rank",
    "trial_index": 45,
    "time_elapsed": 424397,
    "internal_node_id": "0.0-45.0"
  },
  {
    "src": [
      "ce/135156_ce.png",
      "gl/135156_gl.png",
      "ours/135156_ours.png"
    ],
    "rank_data": [
      1,
      2,
      0
    ],
    "rank_result": [
      "ours/135156_ours.png",
      "ce/135156_ce.png",
      "gl/135156_gl.png"
    ],
    "rt": 6527,
    "trial_type": "image-rank",
    "trial_index": 46,
    "time_elapsed": 430925,
    "internal_node_id": "0.0-46.0"
  },
  {
    "src": [
      "ours/106551_ours.png",
      "gl/106551_gl.png",
      "ce/106551_ce.png"
    ],
    "rank_data": [
      0,
      2,
      1
    ],
    "rank_result": [
      "ours/106551_ours.png",
      "ce/106551_ce.png",
      "gl/106551_gl.png"
    ],
    "rt": 9247,
    "trial_type": "image-rank",
    "trial_index": 47,
    "time_elapsed": 440172,
    "internal_node_id": "0.0-47.0"
  },
  {
    "src": [
      "ours/081378_ours.png",
      "ce/081378_ce.png",
      "gl/081378_gl.png"
    ],
    "rank_data": [
      0,
      1,
      2
    ],
    "rank_result": [
      "ours/081378_ours.png",
      "ce/081378_ce.png",
      "gl/081378_gl.png"
    ],
    "rt": 8304,
    "trial_type": "image-rank",
    "trial_index": 48,
    "time_elapsed": 448476,
    "internal_node_id": "0.0-48.0"
  },
  {
    "src": [
      "gl/102967_gl.png",
      "ce/102967_ce.png",
      "ours/102967_ours.png"
    ],
    "rank_data": [
      2,
      1,
      0
    ],
    "rank_result": [
      "ours/102967_ours.png",
      "ce/102967_ce.png",
      "gl/102967_gl.png"
    ],
    "rt": 7232,
    "trial_type": "image-rank",
    "trial_index": 49,
    "time_elapsed": 455708,
    "internal_node_id": "0.0-49.0"
  },
  {
    "src": [
      "gl/087070_gl.png",
      "ce/087070_ce.png",
      "ours/087070_ours.png"
    ],
    "rank_data": [
      2,
      1,
      0
    ],
    "rank_result": [
      "ours/087070_ours.png",
      "ce/087070_ce.png",
      "gl/087070_gl.png"
    ],
    "rt": 5606,
    "trial_type": "image-rank",
    "trial_index": 50,
    "time_elapsed": 461316,
    "internal_node_id": "0.0-50.0"
  },
  {
    "src": [
      "ce/061842_ce.png",
      "gl/061842_gl.png",
      "ours/061842_ours.png"
    ],
    "rank_data": [
      1,
      2,
      0
    ],
    "rank_result": [
      "ours/061842_ours.png",
      "ce/061842_ce.png",
      "gl/061842_gl.png"
    ],
    "rt": 8520,
    "trial_type": "image-rank",
    "trial_index": 51,
    "time_elapsed": 469836,
    "internal_node_id": "0.0-51.0"
  },
  {
    "src": [
      "ce/101871_ce.png",
      "gl/101871_gl.png",
      "ours/101871_ours.png"
    ],
    "rank_data": [
      2,
      1,
      0
    ],
    "rank_result": [
      "ours/101871_ours.png",
      "gl/101871_gl.png",
      "ce/101871_ce.png"
    ],
    "rt": 8775,
    "trial_type": "image-rank",
    "trial_index": 52,
    "time_elapsed": 478611,
    "internal_node_id": "0.0-52.0"
  },
  {
    "src": [
      "ours/005727_ours.png",
      "gl/005727_gl.png",
      "ce/005727_ce.png"
    ],
    "rank_data": [
      1,
      2,
      0
    ],
    "rank_result": [
      "ce/005727_ce.png",
      "ours/005727_ours.png",
      "gl/005727_gl.png"
    ],
    "rt": 4296,
    "trial_type": "image-rank",
    "trial_index": 53,
    "time_elapsed": 482908,
    "internal_node_id": "0.0-53.0"
  },
  {
    "src": [
      "ours/029079_ours.png",
      "ce/029079_ce.png",
      "gl/029079_gl.png"
    ],
    "rank_data": [
      1,
      0,
      2
    ],
    "rank_result": [
      "ce/029079_ce.png",
      "ours/029079_ours.png",
      "gl/029079_gl.png"
    ],
    "rt": 5431,
    "trial_type": "image-rank",
    "trial_index": 54,
    "time_elapsed": 488340,
    "internal_node_id": "0.0-54.0"
  },
  {
    "src": [
      "gl/117616_gl.png",
      "ce/117616_ce.png",
      "ours/117616_ours.png"
    ],
    "rank_data": [
      1,
      2,
      0
    ],
    "rank_result": [
      "ours/117616_ours.png",
      "gl/117616_gl.png",
      "ce/117616_ce.png"
    ],
    "rt": 7335,
    "trial_type": "image-rank",
    "trial_index": 55,
    "time_elapsed": 495675,
    "internal_node_id": "0.0-55.0"
  },
  {
    "src": [
      "ours/051212_ours.png",
      "gl/051212_gl.png",
      "ce/051212_ce.png"
    ],
    "rank_data": [
      1,
      2,
      0
    ],
    "rank_result": [
      "ce/051212_ce.png",
      "ours/051212_ours.png",
      "gl/051212_gl.png"
    ],
    "rt": 8616,
    "trial_type": "image-rank",
    "trial_index": 56,
    "time_elapsed": 504291,
    "internal_node_id": "0.0-56.0"
  },
  {
    "src": [
      "gl/070511_gl.png",
      "ours/070511_ours.png",
      "ce/070511_ce.png"
    ],
    "rank_data": [
      1,
      0,
      2
    ],
    "rank_result": [
      "ours/070511_ours.png",
      "gl/070511_gl.png",
      "ce/070511_ce.png"
    ],
    "rt": 9648,
    "trial_type": "image-rank",
    "trial_index": 57,
    "time_elapsed": 513939,
    "internal_node_id": "0.0-57.0"
  },
  {
    "src": [
      "ce/075070_ce.png",
      "gl/075070_gl.png",
      "ours/075070_ours.png"
    ],
    "rank_data": [
      1,
      2,
      0
    ],
    "rank_result": [
      "ours/075070_ours.png",
      "ce/075070_ce.png",
      "gl/075070_gl.png"
    ],
    "rt": 8614,
    "trial_type": "image-rank",
    "trial_index": 58,
    "time_elapsed": 522555,
    "internal_node_id": "0.0-58.0"
  },
  {
    "src": [
      "ours/054108_ours.png",
      "ce/054108_ce.png",
      "gl/054108_gl.png"
    ],
    "rank_data": [
      0,
      2,
      1
    ],
    "rank_result": [
      "ours/054108_ours.png",
      "gl/054108_gl.png",
      "ce/054108_ce.png"
    ],
    "rt": 4143,
    "trial_type": "image-rank",
    "trial_index": 59,
    "time_elapsed": 526698,
    "internal_node_id": "0.0-59.0"
  },
  {
    "src": [
      "ce/174135_ce.png",
      "gl/174135_gl.png",
      "ours/174135_ours.png"
    ],
    "rank_data": [
      1,
      2,
      0
    ],
    "rank_result": [
      "ours/174135_ours.png",
      "ce/174135_ce.png",
      "gl/174135_gl.png"
    ],
    "rt": 6128,
    "trial_type": "image-rank",
    "trial_index": 60,
    "time_elapsed": 532826,
    "internal_node_id": "0.0-60.0"
  },
  {
    "src": [
      "ce/123653_ce.png",
      "gl/123653_gl.png",
      "ours/123653_ours.png"
    ],
    "rank_data": [
      2,
      1,
      0
    ],
    "rank_result": [
      "ours/123653_ours.png",
      "gl/123653_gl.png",
      "ce/123653_ce.png"
    ],
    "rt": 6056,
    "trial_type": "image-rank",
    "trial_index": 61,
    "time_elapsed": 538882,
    "internal_node_id": "0.0-61.0"
  },
  {
    "src": [
      "gl/065642_gl.png",
      "ce/065642_ce.png",
      "ours/065642_ours.png"
    ],
    "rank_data": [
      2,
      1,
      0
    ],
    "rank_result": [
      "ours/065642_ours.png",
      "ce/065642_ce.png",
      "gl/065642_gl.png"
    ],
    "rt": 3951,
    "trial_type": "image-rank",
    "trial_index": 62,
    "time_elapsed": 542834,
    "internal_node_id": "0.0-62.0"
  },
  {
    "src": [
      "gl/186792_gl.png",
      "ce/186792_ce.png",
      "ours/186792_ours.png"
    ],
    "rank_data": [
      2,
      1,
      0
    ],
    "rank_result": [
      "ours/186792_ours.png",
      "ce/186792_ce.png",
      "gl/186792_gl.png"
    ],
    "rt": 5008,
    "trial_type": "image-rank",
    "trial_index": 63,
    "time_elapsed": 547842,
    "internal_node_id": "0.0-63.0"
  },
  {
    "src": [
      "ce/069132_ce.png",
      "ours/069132_ours.png",
      "gl/069132_gl.png"
    ],
    "rank_data": [
      2,
      1,
      0
    ],
    "rank_result": [
      "gl/069132_gl.png",
      "ours/069132_ours.png",
      "ce/069132_ce.png"
    ],
    "rt": 4798,
    "trial_type": "image-rank",
    "trial_index": 64,
    "time_elapsed": 552642,
    "internal_node_id": "0.0-64.0"
  },
  {
    "src": [
      "ce/106308_ce.png",
      "gl/106308_gl.png",
      "ours/106308_ours.png"
    ],
    "rank_data": [
      1,
      2,
      0
    ],
    "rank_result": [
      "ours/106308_ours.png",
      "ce/106308_ce.png",
      "gl/106308_gl.png"
    ],
    "rt": 4128,
    "trial_type": "image-rank",
    "trial_index": 65,
    "time_elapsed": 556770,
    "internal_node_id": "0.0-65.0"
  },
  {
    "src": [
      "gl/081894_gl.png",
      "ours/081894_ours.png",
      "ce/081894_ce.png"
    ],
    "rank_data": [
      2,
      1,
      0
    ],
    "rank_result": [
      "ce/081894_ce.png",
      "ours/081894_ours.png",
      "gl/081894_gl.png"
    ],
    "rt": 6456,
    "trial_type": "image-rank",
    "trial_index": 66,
    "time_elapsed": 563226,
    "internal_node_id": "0.0-66.0"
  },
  {
    "src": [
      "ce/067203_ce.png",
      "ours/067203_ours.png",
      "gl/067203_gl.png"
    ],
    "rank_data": [
      0,
      1,
      2
    ],
    "rank_result": [
      "ce/067203_ce.png",
      "ours/067203_ours.png",
      "gl/067203_gl.png"
    ],
    "rt": 5231,
    "trial_type": "image-rank",
    "trial_index": 67,
    "time_elapsed": 568457,
    "internal_node_id": "0.0-67.0"
  },
  {
    "src": [
      "gl/092231_gl.png",
      "ce/092231_ce.png",
      "ours/092231_ours.png"
    ],
    "rank_data": [
      2,
      1,
      0
    ],
    "rank_result": [
      "ours/092231_ours.png",
      "ce/092231_ce.png",
      "gl/092231_gl.png"
    ],
    "rt": 3631,
    "trial_type": "image-rank",
    "trial_index": 68,
    "time_elapsed": 572090,
    "internal_node_id": "0.0-68.0"
  },
  {
    "src": [
      "gl/073372_gl.png",
      "ours/073372_ours.png",
      "ce/073372_ce.png"
    ],
    "rank_data": [
      2,
      1,
      0
    ],
    "rank_result": [
      "ce/073372_ce.png",
      "ours/073372_ours.png",
      "gl/073372_gl.png"
    ],
    "rt": 6543,
    "trial_type": "image-rank",
    "trial_index": 69,
    "time_elapsed": 578634,
    "internal_node_id": "0.0-69.0"
  },
  {
    "src": [
      "gl/147338_gl.png",
      "ce/147338_ce.png",
      "ours/147338_ours.png"
    ],
    "rank_data": [
      2,
      1,
      0
    ],
    "rank_result": [
      "ours/147338_ours.png",
      "ce/147338_ce.png",
      "gl/147338_gl.png"
    ],
    "rt": 6183,
    "trial_type": "image-rank",
    "trial_index": 70,
    "time_elapsed": 584817,
    "internal_node_id": "0.0-70.0"
  },
  {
    "src": [
      "ours/007159_ours.png",
      "ce/007159_ce.png",
      "gl/007159_gl.png"
    ],
    "rank_data": [
      0,
      1,
      2
    ],
    "rank_result": [
      "ours/007159_ours.png",
      "ce/007159_ce.png",
      "gl/007159_gl.png"
    ],
    "rt": 11080,
    "trial_type": "image-rank",
    "trial_index": 71,
    "time_elapsed": 595897,
    "internal_node_id": "0.0-71.0"
  },
  {
    "src": [
      "ce/012148_ce.png",
      "ours/012148_ours.png",
      "gl/012148_gl.png"
    ],
    "rank_data": [
      1,
      0,
      2
    ],
    "rank_result": [
      "ours/012148_ours.png",
      "ce/012148_ce.png",
      "gl/012148_gl.png"
    ],
    "rt": 9751,
    "trial_type": "image-rank",
    "trial_index": 72,
    "time_elapsed": 605649,
    "internal_node_id": "0.0-72.0"
  },
  {
    "src": [
      "ce/072372_ce.png",
      "ours/072372_ours.png",
      "gl/072372_gl.png"
    ],
    "rank_data": [
      1,
      0,
      2
    ],
    "rank_result": [
      "ours/072372_ours.png",
      "ce/072372_ce.png",
      "gl/072372_gl.png"
    ],
    "rt": 7624,
    "trial_type": "image-rank",
    "trial_index": 73,
    "time_elapsed": 613273,
    "internal_node_id": "0.0-73.0"
  },
  {
    "src": [
      "ce/050429_ce.png",
      "ours/050429_ours.png",
      "gl/050429_gl.png"
    ],
    "rank_data": [
      0,
      1,
      2
    ],
    "rank_result": [
      "ce/050429_ce.png",
      "ours/050429_ours.png",
      "gl/050429_gl.png"
    ],
    "rt": 6056,
    "trial_type": "image-rank",
    "trial_index": 74,
    "time_elapsed": 619329,
    "internal_node_id": "0.0-74.0"
  },
  {
    "src": [
      "gl/169634_gl.png",
      "ours/169634_ours.png",
      "ce/169634_ce.png"
    ],
    "rank_data": [
      2,
      0,
      1
    ],
    "rank_result": [
      "ours/169634_ours.png",
      "ce/169634_ce.png",
      "gl/169634_gl.png"
    ],
    "rt": 7383,
    "trial_type": "image-rank",
    "trial_index": 75,
    "time_elapsed": 626713,
    "internal_node_id": "0.0-75.0"
  },
  {
    "src": [
      "ce/090716_ce.png",
      "ours/090716_ours.png",
      "gl/090716_gl.png"
    ],
    "rank_data": [
      2,
      1,
      0
    ],
    "rank_result": [
      "gl/090716_gl.png",
      "ours/090716_ours.png",
      "ce/090716_ce.png"
    ],
    "rt": 4215,
    "trial_type": "image-rank",
    "trial_index": 76,
    "time_elapsed": 630928,
    "internal_node_id": "0.0-76.0"
  },
  {
    "src": [
      "ce/010809_ce.png",
      "ours/010809_ours.png",
      "gl/010809_gl.png"
    ],
    "rank_data": [
      0,
      1,
      2
    ],
    "rank_result": [
      "ce/010809_ce.png",
      "ours/010809_ours.png",
      "gl/010809_gl.png"
    ],
    "rt": 9016,
    "trial_type": "image-rank",
    "trial_index": 77,
    "time_elapsed": 639944,
    "internal_node_id": "0.0-77.0"
  },
  {
    "src": [
      "ce/166607_ce.png",
      "gl/166607_gl.png",
      "ours/166607_ours.png"
    ],
    "rank_data": [
      1,
      2,
      0
    ],
    "rank_result": [
      "ours/166607_ours.png",
      "ce/166607_ce.png",
      "gl/166607_gl.png"
    ],
    "rt": 4719,
    "trial_type": "image-rank",
    "trial_index": 78,
    "time_elapsed": 644664,
    "internal_node_id": "0.0-78.0"
  },
  {
    "src": [
      "gl/099225_gl.png",
      "ours/099225_ours.png",
      "ce/099225_ce.png"
    ],
    "rank_data": [
      2,
      0,
      1
    ],
    "rank_result": [
      "ours/099225_ours.png",
      "ce/099225_ce.png",
      "gl/099225_gl.png"
    ],
    "rt": 8367,
    "trial_type": "image-rank",
    "trial_index": 79,
    "time_elapsed": 653032,
    "internal_node_id": "0.0-79.0"
  },
  {
    "src": [
      "gl/161740_gl.png",
      "ours/161740_ours.png",
      "ce/161740_ce.png"
    ],
    "rank_data": [
      2,
      1,
      0
    ],
    "rank_result": [
      "ce/161740_ce.png",
      "ours/161740_ours.png",
      "gl/161740_gl.png"
    ],
    "rt": 6383,
    "trial_type": "image-rank",
    "trial_index": 80,
    "time_elapsed": 659416,
    "internal_node_id": "0.0-80.0"
  },
  {
    "src": [
      "ce/163089_ce.png",
      "gl/163089_gl.png",
      "ours/163089_ours.png"
    ],
    "rank_data": [
      2,
      1,
      0
    ],
    "rank_result": [
      "ours/163089_ours.png",
      "gl/163089_gl.png",
      "ce/163089_ce.png"
    ],
    "rt": 5199,
    "trial_type": "image-rank",
    "trial_index": 81,
    "time_elapsed": 664616,
    "internal_node_id": "0.0-81.0"
  },
  {
    "src": [
      "ce/068589_ce.png",
      "gl/068589_gl.png",
      "ours/068589_ours.png"
    ],
    "rank_data": [
      2,
      1,
      0
    ],
    "rank_result": [
      "ours/068589_ours.png",
      "gl/068589_gl.png",
      "ce/068589_ce.png"
    ],
    "rt": 5032,
    "trial_type": "image-rank",
    "trial_index": 82,
    "time_elapsed": 669648,
    "internal_node_id": "0.0-82.0"
  },
  {
    "src": [
      "ce/123759_ce.png",
      "ours/123759_ours.png",
      "gl/123759_gl.png"
    ],
    "rank_data": [
      2,
      0,
      1
    ],
    "rank_result": [
      "ours/123759_ours.png",
      "gl/123759_gl.png",
      "ce/123759_ce.png"
    ],
    "rt": 5496,
    "trial_type": "image-rank",
    "trial_index": 83,
    "time_elapsed": 675144,
    "internal_node_id": "0.0-83.0"
  },
  {
    "src": [
      "ce/076914_ce.png",
      "ours/076914_ours.png",
      "gl/076914_gl.png"
    ],
    "rank_data": [
      2,
      1,
      0
    ],
    "rank_result": [
      "gl/076914_gl.png",
      "ours/076914_ours.png",
      "ce/076914_ce.png"
    ],
    "rt": 8479,
    "trial_type": "image-rank",
    "trial_index": 84,
    "time_elapsed": 683624,
    "internal_node_id": "0.0-84.0"
  },
  {
    "src": [
      "ce/116589_ce.png",
      "gl/116589_gl.png",
      "ours/116589_ours.png"
    ],
    "rank_data": [
      2,
      1,
      0
    ],
    "rank_result": [
      "ours/116589_ours.png",
      "gl/116589_gl.png",
      "ce/116589_ce.png"
    ],
    "rt": 3975,
    "trial_type": "image-rank",
    "trial_index": 85,
    "time_elapsed": 687600,
    "internal_node_id": "0.0-85.0"
  },
  {
    "src": [
      "gl/012753_gl.png",
      "ce/012753_ce.png",
      "ours/012753_ours.png"
    ],
    "rank_data": [
      0,
      2,
      1
    ],
    "rank_result": [
      "gl/012753_gl.png",
      "ours/012753_ours.png",
      "ce/012753_ce.png"
    ],
    "rt": 6702,
    "trial_type": "image-rank",
    "trial_index": 86,
    "time_elapsed": 694303,
    "internal_node_id": "0.0-86.0"
  },
  {
    "src": [
      "gl/037803_gl.png",
      "ours/037803_ours.png",
      "ce/037803_ce.png"
    ],
    "rank_data": [
      2,
      1,
      0
    ],
    "rank_result": [
      "ce/037803_ce.png",
      "ours/037803_ours.png",
      "gl/037803_gl.png"
    ],
    "rt": 8104,
    "trial_type": "image-rank",
    "trial_index": 87,
    "time_elapsed": 702407,
    "internal_node_id": "0.0-87.0"
  },
  {
    "src": [
      "ce/178838_ce.png",
      "ours/178838_ours.png",
      "gl/178838_gl.png"
    ],
    "rank_data": [
      2,
      1,
      0
    ],
    "rank_result": [
      "gl/178838_gl.png",
      "ours/178838_ours.png",
      "ce/178838_ce.png"
    ],
    "rt": 9662,
    "trial_type": "image-rank",
    "trial_index": 88,
    "time_elapsed": 712070,
    "internal_node_id": "0.0-88.0"
  },
  {
    "src": [
      "ce/022320_ce.png",
      "gl/022320_gl.png",
      "ours/022320_ours.png"
    ],
    "rank_data": [
      2,
      1,
      0
    ],
    "rank_result": [
      "ours/022320_ours.png",
      "gl/022320_gl.png",
      "ce/022320_ce.png"
    ],
    "rt": 4361,
    "trial_type": "image-rank",
    "trial_index": 89,
    "time_elapsed": 716431,
    "internal_node_id": "0.0-89.0"
  },
  {
    "src": [
      "ours/065621_ours.png",
      "gl/065621_gl.png",
      "ce/065621_ce.png"
    ],
    "rank_data": [
      0,
      1,
      2
    ],
    "rank_result": [
      "ours/065621_ours.png",
      "gl/065621_gl.png",
      "ce/065621_ce.png"
    ],
    "rt": 5496,
    "trial_type": "image-rank",
    "trial_index": 90,
    "time_elapsed": 721927,
    "internal_node_id": "0.0-90.0"
  },
  {
    "src": [
      "ce/009198_ce.png",
      "gl/009198_gl.png",
      "ours/009198_ours.png"
    ],
    "rank_data": [
      2,
      -1,
      0
    ],
    "rank_result": [
      "ours/009198_ours.png",
      "gl/009198_gl.png",
      "ce/009198_ce.png"
    ],
    "rt": 3751,
    "trial_type": "image-rank",
    "trial_index": 91,
    "time_elapsed": 725678,
    "internal_node_id": "0.0-91.0"
  },
  {
    "src": [
      "ce/122637_ce.png",
      "gl/122637_gl.png",
      "ours/122637_ours.png"
    ],
    "rank_data": [
      1,
      2,
      0
    ],
    "rank_result": [
      "ours/122637_ours.png",
      "ce/122637_ce.png",
      "gl/122637_gl.png"
    ],
    "rt": 5816,
    "trial_type": "image-rank",
    "trial_index": 92,
    "time_elapsed": 731495,
    "internal_node_id": "0.0-92.0"
  },
  {
    "src": [
      "gl/110334_gl.png",
      "ours/110334_ours.png",
      "ce/110334_ce.png"
    ],
    "rank_data": [
      0,
      1,
      2
    ],
    "rank_result": [
      "gl/110334_gl.png",
      "ours/110334_ours.png",
      "ce/110334_ce.png"
    ],
    "rt": 4919,
    "trial_type": "image-rank",
    "trial_index": 93,
    "time_elapsed": 736415,
    "internal_node_id": "0.0-93.0"
  },
  {
    "src": [
      "gl/201421_gl.png",
      "ours/201421_ours.png",
      "ce/201421_ce.png"
    ],
    "rank_data": [
      2,
      0,
      1
    ],
    "rank_result": [
      "ours/201421_ours.png",
      "ce/201421_ce.png",
      "gl/201421_gl.png"
    ],
    "rt": 4559,
    "trial_type": "image-rank",
    "trial_index": 94,
    "time_elapsed": 740974,
    "internal_node_id": "0.0-94.0"
  },
  {
    "src": [
      "gl/179719_gl.png",
      "ce/179719_ce.png",
      "ours/179719_ours.png"
    ],
    "rank_data": [
      2,
      1,
      0
    ],
    "rank_result": [
      "ours/179719_ours.png",
      "ce/179719_ce.png",
      "gl/179719_gl.png"
    ],
    "rt": 7647,
    "trial_type": "image-rank",
    "trial_index": 95,
    "time_elapsed": 748622,
    "internal_node_id": "0.0-95.0"
  },
  {
    "src": [
      "ce/010866_ce.png",
      "ours/010866_ours.png",
      "gl/010866_gl.png"
    ],
    "rank_data": [
      2,
      0,
      1
    ],
    "rank_result": [
      "ours/010866_ours.png",
      "gl/010866_gl.png",
      "ce/010866_ce.png"
    ],
    "rt": 6608,
    "trial_type": "image-rank",
    "trial_index": 96,
    "time_elapsed": 755230,
    "internal_node_id": "0.0-96.0"
  },
  {
    "src": [
      "ours/034315_ours.png",
      "gl/034315_gl.png",
      "ce/034315_ce.png"
    ],
    "rank_data": [
      0,
      2,
      1
    ],
    "rank_result": [
      "ours/034315_ours.png",
      "ce/034315_ce.png",
      "gl/034315_gl.png"
    ],
    "rt": 4902,
    "trial_type": "image-rank",
    "trial_index": 97,
    "time_elapsed": 760133,
    "internal_node_id": "0.0-97.0"
  },
  {
    "src": [
      "ce/074012_ce.png",
      "ours/074012_ours.png",
      "gl/074012_gl.png"
    ],
    "rank_data": [
      2,
      1,
      0
    ],
    "rank_result": [
      "gl/074012_gl.png",
      "ours/074012_ours.png",
      "ce/074012_ce.png"
    ],
    "rt": 6497,
    "trial_type": "image-rank",
    "trial_index": 98,
    "time_elapsed": 766630,
    "internal_node_id": "0.0-98.0"
  },
  {
    "src": [
      "ours/186692_ours.png",
      "ce/186692_ce.png",
      "gl/186692_gl.png"
    ],
    "rank_data": [
      0,
      1,
      2
    ],
    "rank_result": [
      "ours/186692_ours.png",
      "ce/186692_ce.png",
      "gl/186692_gl.png"
    ],
    "rt": 10671,
    "trial_type": "image-rank",
    "trial_index": 99,
    "time_elapsed": 777302,
    "internal_node_id": "0.0-99.0"
  },
  {
    "src": [
      "gl/200463_gl.png",
      "ours/200463_ours.png",
      "ce/200463_ce.png"
    ],
    "rank_data": [
      2,
      1,
      0
    ],
    "rank_result": [
      "ce/200463_ce.png",
      "ours/200463_ours.png",
      "gl/200463_gl.png"
    ],
    "rt": 6351,
    "trial_type": "image-rank",
    "trial_index": 100,
    "time_elapsed": 783653,
    "internal_node_id": "0.0-100.0"
  },
  {
    "src": [
      "ours/121120_ours.png",
      "ce/121120_ce.png",
      "gl/121120_gl.png"
    ],
    "rank_data": [
      2,
      1,
      0
    ],
    "rank_result": [
      "gl/121120_gl.png",
      "ce/121120_ce.png",
      "ours/121120_ours.png"
    ],
    "rt": 7359,
    "trial_type": "image-rank",
    "trial_index": 101,
    "time_elapsed": 791013,
    "internal_node_id": "0.0-101.0"
  },
  {
    "src": [
      "ce/165950_ce.png",
      "ours/165950_ours.png",
      "gl/165950_gl.png"
    ],
    "rank_data": [
      0,
      1,
      2
    ],
    "rank_result": [
      "ce/165950_ce.png",
      "ours/165950_ours.png",
      "gl/165950_gl.png"
    ],
    "rt": 6888,
    "trial_type": "image-rank",
    "trial_index": 102,
    "time_elapsed": 797901,
    "internal_node_id": "0.0-102.0"
  }
]