[{"rt":5803,"stimulus":"Welcome to the experiment. Press any key to begin.","key_press":89,"trial_type":"html-keyboard-response","trial_index":0,"time_elapsed":5803,"internal_node_id":"0.0-0.0"},{"rt":11359,"stimulus":"<p>In this experiment, three images of people will appear in the center of the screen.</p><p>Your task is to rank these images based on how <strong>real</strong> you think they are.<p>The ranking level is between 1 to 3, with <strong>1</strong> representing the most real one and <strong>3</strong> the fakest one.</p><p>The time to rank is not limited. When you finish ranking, click the <strong>Continue</strong> button to continue.</p>","key_press":75,"trial_type":"html-keyboard-response","trial_index":1,"time_elapsed":17164,"internal_node_id":"0.0-1.0"},{"rt":null,"stimulus":"<div style=\"font-size:60px;\"></div>","key_press":null,"label":"fixation","trial_type":"html-keyboard-response","trial_index":2,"time_elapsed":18171,"internal_node_id":"0.0-2.0"},{"src":["ce/008289_ce.png","ours/008289_ours.png","gl/008289_gl.png"],"rank_data":[2,0,1],"rank_result":["ours/008289_ours.png","gl/008289_gl.png","ce/008289_ce.png"],"rt":8320,"trial_type":"image-rank","trial_index":3,"time_elapsed":26491,"internal_node_id":"0.0-3.0"},{"src":["ce/092362_ce.png","gl/092362_gl.png","ours/092362_ours.png"],"rank_data":[0,2,1],"rank_result":["ce/092362_ce.png","ours/092362_ours.png","gl/092362_gl.png"],"rt":6664,"trial_type":"image-rank","trial_index":4,"time_elapsed":33155,"internal_node_id":"0.0-4.0"},{"src":["ours/065915_ours.png","ce/065915_ce.png","gl/065915_gl.png"],"rank_data":[0,1,2],"rank_result":["ours/065915_ours.png","ce/065915_ce.png","gl/065915_gl.png"],"rt":6903,"trial_type":"image-rank","trial_index":5,"time_elapsed":40059,"internal_node_id":"0.0-5.0"},{"src":["ours/169562_ours.png","ce/169562_ce.png","gl/169562_gl.png"],"rank_data":[0,2,1],"rank_result":["ours/169562_ours.png","gl/169562_gl.png","ce/169562_ce.png"],"rt":5536,"trial_type":"image-rank","trial_index":6,"time_elapsed":45595,"internal_node_id":"0.0-6.0"},{"src":["ce/140130_ce.png","gl/140130_gl.png","ours/140130_ours.png"],"rank_data":[2,1,0],"rank_result":["ours/140130_ours.png","gl/140130_gl.png","ce/140130_ce.png"],"rt":8384,"trial_type":"image-rank","trial_index":7,"time_elapsed":53979,"internal_node_id":"0.0-7.0"},{"src":["ours/121274_ours.png","gl/121274_gl.png","ce/121274_ce.png"],"rank_data":[0,2,1],"rank_result":["ours/121274_ours.png","ce/121274_ce.png","gl/121274_gl.png"],"rt":6344,"trial_type":"image-rank","trial_index":8,"time_elapsed":60324,"internal_node_id":"0.0-8.0"},{"src":["gl/179052_gl.png","ce/179052_ce.png","ours/179052_ours.png"],"rank_data":[2,1,0],"rank_result":["ours/179052_ours.png","ce/179052_ce.png","gl/179052_gl.png"],"rt":7479,"trial_type":"image-rank","trial_index":9,"time_elapsed":67803,"internal_node_id":"0.0-9.0"},{"src":["ce/073095_ce.png","gl/073095_gl.png","ours/073095_ours.png"],"rank_data":[2,1,0],"rank_result":["ours/073095_ours.png","gl/073095_gl.png","ce/073095_ce.png"],"rt":6488,"trial_type":"image-rank","trial_index":10,"time_elapsed":74291,"internal_node_id":"0.0-10.0"},{"src":["ce/157011_ce.png","gl/157011_gl.png","ours/157011_ours.png"],"rank_data":[2,1,0],"rank_result":["ours/157011_ours.png","gl/157011_gl.png","ce/157011_ce.png"],"rt":8583,"trial_type":"image-rank","trial_index":11,"time_elapsed":82875,"internal_node_id":"0.0-11.0"},{"src":["ce/043965_ce.png","ours/043965_ours.png","gl/043965_gl.png"],"rank_data":[0,1,2],"rank_result":["ce/043965_ce.png","ours/043965_ours.png","gl/043965_gl.png"],"rt":8232,"trial_type":"image-rank","trial_index":12,"time_elapsed":91107,"internal_node_id":"0.0-12.0"},{"src":["gl/181382_gl.png","ours/181382_ours.png","ce/181382_ce.png"],"rank_data":[2,1,0],"rank_result":["ce/181382_ce.png","ours/181382_ours.png","gl/181382_gl.png"],"rt":8264,"trial_type":"image-rank","trial_index":13,"time_elapsed":99371,"internal_node_id":"0.0-13.0"},{"src":["ce/054528_ce.png","gl/054528_gl.png","ours/054528_ours.png"],"rank_data":[1,2,0],"rank_result":["ours/054528_ours.png","ce/054528_ce.png","gl/054528_gl.png"],"rt":8568,"trial_type":"image-rank","trial_index":14,"time_elapsed":107939,"internal_node_id":"0.0-14.0"},{"src":["ce/086825_ce.png","ours/086825_ours.png","gl/086825_gl.png"],"rank_data":[2,0,1],"rank_result":["ours/086825_ours.png","gl/086825_gl.png","ce/086825_ce.png"],"rt":6440,"trial_type":"image-rank","trial_index":15,"time_elapsed":114379,"internal_node_id":"0.0-15.0"},{"src":["ours/185973_ours.png","gl/185973_gl.png","ce/185973_ce.png"],"rank_data":[0,2,1],"rank_result":["ours/185973_ours.png","ce/185973_ce.png","gl/185973_gl.png"],"rt":10048,"trial_type":"image-rank","trial_index":16,"time_elapsed":124427,"internal_node_id":"0.0-16.0"},{"src":["ce/035246_ce.png","ours/035246_ours.png","gl/035246_gl.png"],"rank_data":[1,0,2],"rank_result":["ours/035246_ours.png","ce/035246_ce.png","gl/035246_gl.png"],"rt":5856,"trial_type":"image-rank","trial_index":17,"time_elapsed":130283,"internal_node_id":"0.0-17.0"},{"src":["ours/186305_ours.png","gl/186305_gl.png","ce/186305_ce.png"],"rank_data":[0,2,1],"rank_result":["ours/186305_ours.png","ce/186305_ce.png","gl/186305_gl.png"],"rt":7224,"trial_type":"image-rank","trial_index":18,"time_elapsed":137507,"internal_node_id":"0.0-18.0"},{"src":["ce/022200_ce.png","gl/022200_gl.png","ours/022200_ours.png"],"rank_data":[1,2,0],"rank_result":["ours/022200_ours.png","ce/022200_ce.png","gl/022200_gl.png"],"rt":6384,"trial_type":"image-rank","trial_index":19,"time_elapsed":143892,"internal_node_id":"0.0-19.0"},{"src":["ours/093473_ours.png","gl/093473_gl.png","ce/093473_ce.png"],"rank_data":[0,2,1],"rank_result":["ours/093473_ours.png","ce/093473_ce.png","gl/093473_gl.png"],"rt":8943,"trial_type":"image-rank","trial_index":20,"time_elapsed":152836,"internal_node_id":"0.0-20.0"},{"src":["ce/018101_ce.png","gl/018101_gl.png","ours/018101_ours.png"],"rank_data":[1,2,0],"rank_result":["ours/018101_ours.png","ce/018101_ce.png","gl/018101_gl.png"],"rt":4751,"trial_type":"image-rank","trial_index":21,"time_elapsed":157588,"internal_node_id":"0.0-21.0"},{"src":["gl/038052_gl.png","ours/038052_ours.png","ce/038052_ce.png"],"rank_data":[1,0,2],"rank_result":["ours/038052_ours.png","gl/038052_gl.png","ce/038052_ce.png"],"rt":28111,"trial_type":"image-rank","trial_index":22,"time_elapsed":185699,"internal_node_id":"0.0-22.0"},{"src":["ours/177817_ours.png","ce/177817_ce.png","gl/177817_gl.png"],"rank_data":[0,1,2],"rank_result":["ours/177817_ours.png","ce/177817_ce.png","gl/177817_gl.png"],"rt":6831,"trial_type":"image-rank","trial_index":23,"time_elapsed":192531,"internal_node_id":"0.0-23.0"},{"src":["ce/143036_ce.png","gl/143036_gl.png","ours/143036_ours.png"],"rank_data":[1,2,0],"rank_result":["ours/143036_ours.png","ce/143036_ce.png","gl/143036_gl.png"],"rt":7119,"trial_type":"image-rank","trial_index":24,"time_elapsed":199652,"internal_node_id":"0.0-24.0"},{"src":["ce/092904_ce.png","ours/092904_ours.png","gl/092904_gl.png"],"rank_data":[2,0,1],"rank_result":["ours/092904_ours.png","gl/092904_gl.png","ce/092904_ce.png"],"rt":5607,"trial_type":"image-rank","trial_index":25,"time_elapsed":205259,"internal_node_id":"0.0-25.0"},{"src":["ours/020566_ours.png","ce/020566_ce.png","gl/020566_gl.png"],"rank_data":[0,2,1],"rank_result":["ours/020566_ours.png","gl/020566_gl.png","ce/020566_ce.png"],"rt":5576,"trial_type":"image-rank","trial_index":26,"time_elapsed":210835,"internal_node_id":"0.0-26.0"},{"src":["gl/009443_gl.png","ce/009443_ce.png","ours/009443_ours.png"],"rank_data":[2,1,0],"rank_result":["ours/009443_ours.png","ce/009443_ce.png","gl/009443_gl.png"],"rt":4424,"trial_type":"image-rank","trial_index":27,"time_elapsed":215259,"internal_node_id":"0.0-27.0"},{"src":["ce/107096_ce.png","gl/107096_gl.png","ours/107096_ours.png"],"rank_data":[1,2,0],"rank_result":["ours/107096_ours.png","ce/107096_ce.png","gl/107096_gl.png"],"rt":8896,"trial_type":"image-rank","trial_index":28,"time_elapsed":224155,"internal_node_id":"0.0-28.0"},{"src":["gl/033863_gl.png","ce/033863_ce.png","ours/033863_ours.png"],"rank_data":[1,2,0],"rank_result":["ours/033863_ours.png","gl/033863_gl.png","ce/033863_ce.png"],"rt":8696,"trial_type":"image-rank","trial_index":29,"time_elapsed":232851,"internal_node_id":"0.0-29.0"},{"src":["gl/044519_gl.png","ce/044519_ce.png","ours/044519_ours.png"],"rank_data":[1,2,0],"rank_result":["ours/044519_ours.png","gl/044519_gl.png","ce/044519_ce.png"],"rt":4439,"trial_type":"image-rank","trial_index":30,"time_elapsed":237291,"internal_node_id":"0.0-30.0"},{"src":["ours/051847_ours.png","gl/051847_gl.png","ce/051847_ce.png"],"rank_data":[0,1,2],"rank_result":["ours/051847_ours.png","gl/051847_gl.png","ce/051847_ce.png"],"rt":4864,"trial_type":"image-rank","trial_index":31,"time_elapsed":242155,"internal_node_id":"0.0-31.0"},{"src":["ours/164783_ours.png","gl/164783_gl.png","ce/164783_ce.png"],"rank_data":[0,1,2],"rank_result":["ours/164783_ours.png","gl/164783_gl.png","ce/164783_ce.png"],"rt":5208,"trial_type":"image-rank","trial_index":32,"time_elapsed":247363,"internal_node_id":"0.0-32.0"},{"src":["ours/113350_ours.png","ce/113350_ce.png","gl/113350_gl.png"],"rank_data":[0,2,1],"rank_result":["ours/113350_ours.png","gl/113350_gl.png","ce/113350_ce.png"],"rt":7632,"trial_type":"image-rank","trial_index":33,"time_elapsed":254995,"internal_node_id":"0.0-33.0"},{"src":["ce/022920_ce.png","gl/022920_gl.png","ours/022920_ours.png"],"rank_data":[2,1,0],"rank_result":["ours/022920_ours.png","gl/022920_gl.png","ce/022920_ce.png"],"rt":7064,"trial_type":"image-rank","trial_index":34,"time_elapsed":262059,"internal_node_id":"0.0-34.0"},{"src":["ce/085467_ce.png","ours/085467_ours.png","gl/085467_gl.png"],"rank_data":[2,0,1],"rank_result":["ours/085467_ours.png","gl/085467_gl.png","ce/085467_ce.png"],"rt":7719,"trial_type":"image-rank","trial_index":35,"time_elapsed":269780,"internal_node_id":"0.0-35.0"},{"src":["gl/167589_gl.png","ce/167589_ce.png","ours/167589_ours.png"],"rank_data":[2,1,0],"rank_result":["ours/167589_ours.png","ce/167589_ce.png","gl/167589_gl.png"],"rt":5671,"trial_type":"image-rank","trial_index":36,"time_elapsed":275452,"internal_node_id":"0.0-36.0"},{"src":["gl/165787_gl.png","ce/165787_ce.png","ours/165787_ours.png"],"rank_data":[2,1,0],"rank_result":["ours/165787_ours.png","ce/165787_ce.png","gl/165787_gl.png"],"rt":4535,"trial_type":"image-rank","trial_index":37,"time_elapsed":279988,"internal_node_id":"0.0-37.0"},{"src":["ours/114764_ours.png","ce/114764_ce.png","gl/114764_gl.png"],"rank_data":[0,2,1],"rank_result":["ours/114764_ours.png","gl/114764_gl.png","ce/114764_ce.png"],"rt":3775,"trial_type":"image-rank","trial_index":38,"time_elapsed":283764,"internal_node_id":"0.0-38.0"},{"src":["ours/186699_ours.png","gl/186699_gl.png","ce/186699_ce.png"],"rank_data":[0,1,2],"rank_result":["ours/186699_ours.png","gl/186699_gl.png","ce/186699_ce.png"],"rt":4727,"trial_type":"image-rank","trial_index":39,"time_elapsed":288492,"internal_node_id":"0.0-39.0"},{"src":["ours/148996_ours.png","ce/148996_ce.png","gl/148996_gl.png"],"rank_data":[1,0,2],"rank_result":["ce/148996_ce.png","ours/148996_ours.png","gl/148996_gl.png"],"rt":5959,"trial_type":"image-rank","trial_index":40,"time_elapsed":294452,"internal_node_id":"0.0-40.0"},{"src":["ours/028746_ours.png","gl/028746_gl.png","ce/028746_ce.png"],"rank_data":[0,1,2],"rank_result":["ours/028746_ours.png","gl/028746_gl.png","ce/028746_ce.png"],"rt":4191,"trial_type":"image-rank","trial_index":41,"time_elapsed":298644,"internal_node_id":"0.0-41.0"},{"src":["ours/025359_ours.png","gl/025359_gl.png","ce/025359_ce.png"],"rank_data":[0,2,1],"rank_result":["ours/025359_ours.png","ce/025359_ce.png","gl/025359_gl.png"],"rt":5239,"trial_type":"image-rank","trial_index":42,"time_elapsed":303884,"internal_node_id":"0.0-42.0"},{"src":["gl/081275_gl.png","ce/081275_ce.png","ours/081275_ours.png"],"rank_data":[2,1,0],"rank_result":["ours/081275_ours.png","ce/081275_ce.png","gl/081275_gl.png"],"rt":3615,"trial_type":"image-rank","trial_index":43,"time_elapsed":307500,"internal_node_id":"0.0-43.0"},{"src":["ours/102379_ours.png","ce/102379_ce.png","gl/102379_gl.png"],"rank_data":[0,1,2],"rank_result":["ours/102379_ours.png","ce/102379_ce.png","gl/102379_gl.png"],"rt":6807,"trial_type":"image-rank","trial_index":44,"time_elapsed":314308,"internal_node_id":"0.0-44.0"},{"src":["ce/200954_ce.png","gl/200954_gl.png","ours/200954_ours.png"],"rank_data":[2,0,1],"rank_result":["gl/200954_gl.png","ours/200954_ours.png","ce/200954_ce.png"],"rt":7207,"trial_type":"image-rank","trial_index":45,"time_elapsed":321516,"internal_node_id":"0.0-45.0"},{"src":["ce/165195_ce.png","gl/165195_gl.png","ours/165195_ours.png"],"rank_data":[1,2,0],"rank_result":["ours/165195_ours.png","ce/165195_ce.png","gl/165195_gl.png"],"rt":5383,"trial_type":"image-rank","trial_index":46,"time_elapsed":326900,"internal_node_id":"0.0-46.0"},{"src":["gl/072723_gl.png","ce/072723_ce.png","ours/072723_ours.png"],"rank_data":[2,1,0],"rank_result":["ours/072723_ours.png","ce/072723_ce.png","gl/072723_gl.png"],"rt":4791,"trial_type":"image-rank","trial_index":47,"time_elapsed":331692,"internal_node_id":"0.0-47.0"},{"src":["ce/040945_ce.png","ours/040945_ours.png","gl/040945_gl.png"],"rank_data":[2,0,1],"rank_result":["ours/040945_ours.png","gl/040945_gl.png","ce/040945_ce.png"],"rt":9095,"trial_type":"image-rank","trial_index":48,"time_elapsed":340788,"internal_node_id":"0.0-48.0"},{"src":["ce/030262_ce.png","ours/030262_ours.png","gl/030262_gl.png"],"rank_data":[2,0,1],"rank_result":["ours/030262_ours.png","gl/030262_gl.png","ce/030262_ce.png"],"rt":5566,"trial_type":"image-rank","trial_index":49,"time_elapsed":346356,"internal_node_id":"0.0-49.0"},{"src":["ours/013059_ours.png","gl/013059_gl.png","ce/013059_ce.png"],"rank_data":[0,2,1],"rank_result":["ours/013059_ours.png","ce/013059_ce.png","gl/013059_gl.png"],"rt":4559,"trial_type":"image-rank","trial_index":50,"time_elapsed":350916,"internal_node_id":"0.0-50.0"},{"src":["ours/068232_ours.png","ce/068232_ce.png","gl/068232_gl.png"],"rank_data":[0,1,2],"rank_result":["ours/068232_ours.png","ce/068232_ce.png","gl/068232_gl.png"],"rt":5079,"trial_type":"image-rank","trial_index":51,"time_elapsed":355996,"internal_node_id":"0.0-51.0"},{"src":["ours/157325_ours.png","ce/157325_ce.png","gl/157325_gl.png"],"rank_data":[0,2,1],"rank_result":["ours/157325_ours.png","gl/157325_gl.png","ce/157325_ce.png"],"rt":5047,"trial_type":"image-rank","trial_index":52,"time_elapsed":361044,"internal_node_id":"0.0-52.0"},{"src":["ours/033772_ours.png","gl/033772_gl.png","ce/033772_ce.png"],"rank_data":[0,2,1],"rank_result":["ours/033772_ours.png","ce/033772_ce.png","gl/033772_gl.png"],"rt":3855,"trial_type":"image-rank","trial_index":53,"time_elapsed":364900,"internal_node_id":"0.0-53.0"},{"src":["ce/114220_ce.png","gl/114220_gl.png","ours/114220_ours.png"],"rank_data":[0,2,1],"rank_result":["ce/114220_ce.png","ours/114220_ours.png","gl/114220_gl.png"],"rt":5695,"trial_type":"image-rank","trial_index":54,"time_elapsed":370596,"internal_node_id":"0.0-54.0"},{"src":["gl/034082_gl.png","ce/034082_ce.png","ours/034082_ours.png"],"rank_data":[1,2,0],"rank_result":["ours/034082_ours.png","gl/034082_gl.png","ce/034082_ce.png"],"rt":5143,"trial_type":"image-rank","trial_index":55,"time_elapsed":375740,"internal_node_id":"0.0-55.0"},{"src":["gl/150574_gl.png","ours/150574_ours.png","ce/150574_ce.png"],"rank_data":[2,0,1],"rank_result":["ours/150574_ours.png","ce/150574_ce.png","gl/150574_gl.png"],"rt":7000,"trial_type":"image-rank","trial_index":56,"time_elapsed":382740,"internal_node_id":"0.0-56.0"},{"src":["ce/103462_ce.png","ours/103462_ours.png","gl/103462_gl.png"],"rank_data":[1,0,2],"rank_result":["ours/103462_ours.png","ce/103462_ce.png","gl/103462_gl.png"],"rt":4448,"trial_type":"image-rank","trial_index":57,"time_elapsed":387188,"internal_node_id":"0.0-57.0"},{"src":["gl/115172_gl.png","ce/115172_ce.png","ours/115172_ours.png"],"rank_data":[2,1,0],"rank_result":["ours/115172_ours.png","ce/115172_ce.png","gl/115172_gl.png"],"rt":5344,"trial_type":"image-rank","trial_index":58,"time_elapsed":392532,"internal_node_id":"0.0-58.0"},{"src":["gl/030494_gl.png","ce/030494_ce.png","ours/030494_ours.png"],"rank_data":[2,1,0],"rank_result":["ours/030494_ours.png","ce/030494_ce.png","gl/030494_gl.png"],"rt":3648,"trial_type":"image-rank","trial_index":59,"time_elapsed":396180,"internal_node_id":"0.0-59.0"},{"src":["ours/020499_ours.png","ce/020499_ce.png","gl/020499_gl.png"],"rank_data":[0,2,1],"rank_result":["ours/020499_ours.png","gl/020499_gl.png","ce/020499_ce.png"],"rt":8776,"trial_type":"image-rank","trial_index":60,"time_elapsed":404956,"internal_node_id":"0.0-60.0"},{"src":["gl/004744_gl.png","ours/004744_ours.png","ce/004744_ce.png"],"rank_data":[2,0,1],"rank_result":["ours/004744_ours.png","ce/004744_ce.png","gl/004744_gl.png"],"rt":5320,"trial_type":"image-rank","trial_index":61,"time_elapsed":410276,"internal_node_id":"0.0-61.0"},{"src":["gl/175564_gl.png","ce/175564_ce.png","ours/175564_ours.png"],"rank_data":[2,1,0],"rank_result":["ours/175564_ours.png","ce/175564_ce.png","gl/175564_gl.png"],"rt":19232,"trial_type":"image-rank","trial_index":62,"time_elapsed":429508,"internal_node_id":"0.0-62.0"},{"src":["ce/126398_ce.png","gl/126398_gl.png","ours/126398_ours.png"],"rank_data":[1,2,0],"rank_result":["ours/126398_ours.png","ce/126398_ce.png","gl/126398_gl.png"],"rt":3584,"trial_type":"image-rank","trial_index":63,"time_elapsed":433092,"internal_node_id":"0.0-63.0"},{"src":["ce/066703_ce.png","ours/066703_ours.png","gl/066703_gl.png"],"rank_data":[2,0,1],"rank_result":["ours/066703_ours.png","gl/066703_gl.png","ce/066703_ce.png"],"rt":5616,"trial_type":"image-rank","trial_index":64,"time_elapsed":438708,"internal_node_id":"0.0-64.0"},{"src":["gl/200877_gl.png","ours/200877_ours.png","ce/200877_ce.png"],"rank_data":[0,1,2],"rank_result":["gl/200877_gl.png","ours/200877_ours.png","ce/200877_ce.png"],"rt":4104,"trial_type":"image-rank","trial_index":65,"time_elapsed":442812,"internal_node_id":"0.0-65.0"},{"src":["gl/004848_gl.png","ours/004848_ours.png","ce/004848_ce.png"],"rank_data":[2,0,1],"rank_result":["ours/004848_ours.png","ce/004848_ce.png","gl/004848_gl.png"],"rt":4327,"trial_type":"image-rank","trial_index":66,"time_elapsed":447140,"internal_node_id":"0.0-66.0"},{"src":["ce/168227_ce.png","ours/168227_ours.png","gl/168227_gl.png"],"rank_data":[0,1,2],"rank_result":["ce/168227_ce.png","ours/168227_ours.png","gl/168227_gl.png"],"rt":10712,"trial_type":"image-rank","trial_index":67,"time_elapsed":457852,"internal_node_id":"0.0-67.0"},{"src":["ce/084301_ce.png","gl/084301_gl.png","ours/084301_ours.png"],"rank_data":[1,2,0],"rank_result":["ours/084301_ours.png","ce/084301_ce.png","gl/084301_gl.png"],"rt":5312,"trial_type":"image-rank","trial_index":68,"time_elapsed":463164,"internal_node_id":"0.0-68.0"},{"src":["ours/086480_ours.png","ce/086480_ce.png","gl/086480_gl.png"],"rank_data":[0,1,2],"rank_result":["ours/086480_ours.png","ce/086480_ce.png","gl/086480_gl.png"],"rt":13648,"trial_type":"image-rank","trial_index":69,"time_elapsed":476812,"internal_node_id":"0.0-69.0"},{"src":["gl/136098_gl.png","ce/136098_ce.png","ours/136098_ours.png"],"rank_data":[2,1,0],"rank_result":["ours/136098_ours.png","ce/136098_ce.png","gl/136098_gl.png"],"rt":6128,"trial_type":"image-rank","trial_index":70,"time_elapsed":482940,"internal_node_id":"0.0-70.0"},{"src":["gl/045555_gl.png","ce/045555_ce.png","ours/045555_ours.png"],"rank_data":[2,1,0],"rank_result":["ours/045555_ours.png","ce/045555_ce.png","gl/045555_gl.png"],"rt":3784,"trial_type":"image-rank","trial_index":71,"time_elapsed":486724,"internal_node_id":"0.0-71.0"},{"src":["gl/147713_gl.png","ours/147713_ours.png","ce/147713_ce.png"],"rank_data":[2,0,1],"rank_result":["ours/147713_ours.png","ce/147713_ce.png","gl/147713_gl.png"],"rt":4928,"trial_type":"image-rank","trial_index":72,"time_elapsed":491652,"internal_node_id":"0.0-72.0"},{"src":["ours/013311_ours.png","ce/013311_ce.png","gl/013311_gl.png"],"rank_data":[0,1,2],"rank_result":["ours/013311_ours.png","ce/013311_ce.png","gl/013311_gl.png"],"rt":6392,"trial_type":"image-rank","trial_index":73,"time_elapsed":498044,"internal_node_id":"0.0-73.0"},{"src":["ce/169538_ce.png","ours/169538_ours.png","gl/169538_gl.png"],"rank_data":[2,1,0],"rank_result":["gl/169538_gl.png","ours/169538_ours.png","ce/169538_ce.png"],"rt":4648,"trial_type":"image-rank","trial_index":74,"time_elapsed":502692,"internal_node_id":"0.0-74.0"},{"src":["ce/077285_ce.png","ours/077285_ours.png","gl/077285_gl.png"],"rank_data":[2,1,0],"rank_result":["gl/077285_gl.png","ours/077285_ours.png","ce/077285_ce.png"],"rt":6359,"trial_type":"image-rank","trial_index":75,"time_elapsed":509052,"internal_node_id":"0.0-75.0"},{"src":["ce/009556_ce.png","ours/009556_ours.png","gl/009556_gl.png"],"rank_data":[1,0,2],"rank_result":["ours/009556_ours.png","ce/009556_ce.png","gl/009556_gl.png"],"rt":8359,"trial_type":"image-rank","trial_index":76,"time_elapsed":517412,"internal_node_id":"0.0-76.0"},{"src":["ce/067771_ce.png","ours/067771_ours.png","gl/067771_gl.png"],"rank_data":[2,0,1],"rank_result":["ours/067771_ours.png","gl/067771_gl.png","ce/067771_ce.png"],"rt":6071,"trial_type":"image-rank","trial_index":77,"time_elapsed":523484,"internal_node_id":"0.0-77.0"},{"src":["ce/006912_ce.png","ours/006912_ours.png","gl/006912_gl.png"],"rank_data":[2,0,1],"rank_result":["ours/006912_ours.png","gl/006912_gl.png","ce/006912_ce.png"],"rt":5439,"trial_type":"image-rank","trial_index":78,"time_elapsed":528924,"internal_node_id":"0.0-78.0"},{"src":["ce/167180_ce.png","ours/167180_ours.png","gl/167180_gl.png"],"rank_data":[1,0,2],"rank_result":["ours/167180_ours.png","ce/167180_ce.png","gl/167180_gl.png"],"rt":7511,"trial_type":"image-rank","trial_index":79,"time_elapsed":536436,"internal_node_id":"0.0-79.0"},{"src":["gl/083942_gl.png","ce/083942_ce.png","ours/083942_ours.png"],"rank_data":[2,1,0],"rank_result":["ours/083942_ours.png","ce/083942_ce.png","gl/083942_gl.png"],"rt":4087,"trial_type":"image-rank","trial_index":80,"time_elapsed":540524,"internal_node_id":"0.0-80.0"},{"src":["gl/173377_gl.png","ours/173377_ours.png","ce/173377_ce.png"],"rank_data":[1,2,0],"rank_result":["ce/173377_ce.png","gl/173377_gl.png","ours/173377_ours.png"],"rt":5208,"trial_type":"image-rank","trial_index":81,"time_elapsed":545732,"internal_node_id":"0.0-81.0"},{"src":["gl/004332_gl.png","ce/004332_ce.png","ours/004332_ours.png"],"rank_data":[1,2,0],"rank_result":["ours/004332_ours.png","gl/004332_gl.png","ce/004332_ce.png"],"rt":4832,"trial_type":"image-rank","trial_index":82,"time_elapsed":550564,"internal_node_id":"0.0-82.0"},{"src":["ce/155307_ce.png","ours/155307_ours.png","gl/155307_gl.png"],"rank_data":[0,1,2],"rank_result":["ce/155307_ce.png","ours/155307_ours.png","gl/155307_gl.png"],"rt":4966,"trial_type":"image-rank","trial_index":83,"time_elapsed":555532,"internal_node_id":"0.0-83.0"},{"src":["ce/119207_ce.png","gl/119207_gl.png","ours/119207_ours.png"],"rank_data":[2,1,0],"rank_result":["ours/119207_ours.png","gl/119207_gl.png","ce/119207_ce.png"],"rt":7464,"trial_type":"image-rank","trial_index":84,"time_elapsed":562996,"internal_node_id":"0.0-84.0"},{"src":["gl/152779_gl.png","ours/152779_ours.png","ce/152779_ce.png"],"rank_data":[2,0,1],"rank_result":["ours/152779_ours.png","ce/152779_ce.png","gl/152779_gl.png"],"rt":3960,"trial_type":"image-rank","trial_index":85,"time_elapsed":566956,"internal_node_id":"0.0-85.0"},{"src":["gl/115315_gl.png","ours/115315_ours.png","ce/115315_ce.png"],"rank_data":[2,0,1],"rank_result":["ours/115315_ours.png","ce/115315_ce.png","gl/115315_gl.png"],"rt":3800,"trial_type":"image-rank","trial_index":86,"time_elapsed":570756,"internal_node_id":"0.0-86.0"},{"src":["gl/197358_gl.png","ce/197358_ce.png","ours/197358_ours.png"],"rank_data":[2,1,0],"rank_result":["ours/197358_ours.png","ce/197358_ce.png","gl/197358_gl.png"],"rt":4704,"trial_type":"image-rank","trial_index":87,"time_elapsed":575460,"internal_node_id":"0.0-87.0"},{"src":["gl/110453_gl.png","ce/110453_ce.png","ours/110453_ours.png"],"rank_data":[1,2,0],"rank_result":["ours/110453_ours.png","gl/110453_gl.png","ce/110453_ce.png"],"rt":7176,"trial_type":"image-rank","trial_index":88,"time_elapsed":582636,"internal_node_id":"0.0-88.0"},{"src":["ce/081909_ce.png","ours/081909_ours.png","gl/081909_gl.png"],"rank_data":[0,1,2],"rank_result":["ce/081909_ce.png","ours/081909_ours.png","gl/081909_gl.png"],"rt":4912,"trial_type":"image-rank","trial_index":89,"time_elapsed":587548,"internal_node_id":"0.0-89.0"},{"src":["ce/037466_ce.png","gl/037466_gl.png","ours/037466_ours.png"],"rank_data":[0,2,1],"rank_result":["ce/037466_ce.png","ours/037466_ours.png","gl/037466_gl.png"],"rt":4472,"trial_type":"image-rank","trial_index":90,"time_elapsed":592020,"internal_node_id":"0.0-90.0"},{"src":["ours/033777_ours.png","gl/033777_gl.png","ce/033777_ce.png"],"rank_data":[0,1,2],"rank_result":["ours/033777_ours.png","gl/033777_gl.png","ce/033777_ce.png"],"rt":7736,"trial_type":"image-rank","trial_index":91,"time_elapsed":599756,"internal_node_id":"0.0-91.0"},{"src":["ours/045712_ours.png","gl/045712_gl.png","ce/045712_ce.png"],"rank_data":[0,2,1],"rank_result":["ours/045712_ours.png","ce/045712_ce.png","gl/045712_gl.png"],"rt":6208,"trial_type":"image-rank","trial_index":92,"time_elapsed":605964,"internal_node_id":"0.0-92.0"},{"src":["gl/074180_gl.png","ce/074180_ce.png","ours/074180_ours.png"],"rank_data":[2,1,0],"rank_result":["ours/074180_ours.png","ce/074180_ce.png","gl/074180_gl.png"],"rt":2984,"trial_type":"image-rank","trial_index":93,"time_elapsed":608948,"internal_node_id":"0.0-93.0"},{"src":["gl/146447_gl.png","ours/146447_ours.png","ce/146447_ce.png"],"rank_data":[0,2,1],"rank_result":["gl/146447_gl.png","ce/146447_ce.png","ours/146447_ours.png"],"rt":4520,"trial_type":"image-rank","trial_index":94,"time_elapsed":613468,"internal_node_id":"0.0-94.0"},{"src":["gl/004682_gl.png","ours/004682_ours.png","ce/004682_ce.png"],"rank_data":[1,0,2],"rank_result":["ours/004682_ours.png","gl/004682_gl.png","ce/004682_ce.png"],"rt":4832,"trial_type":"image-rank","trial_index":95,"time_elapsed":618300,"internal_node_id":"0.0-95.0"},{"src":["ce/011349_ce.png","ours/011349_ours.png","gl/011349_gl.png"],"rank_data":[0,1,2],"rank_result":["ce/011349_ce.png","ours/011349_ours.png","gl/011349_gl.png"],"rt":5968,"trial_type":"image-rank","trial_index":96,"time_elapsed":624268,"internal_node_id":"0.0-96.0"},{"src":["ce/038679_ce.png","ours/038679_ours.png","gl/038679_gl.png"],"rank_data":[1,0,2],"rank_result":["ours/038679_ours.png","ce/038679_ce.png","gl/038679_gl.png"],"rt":19560,"trial_type":"image-rank","trial_index":97,"time_elapsed":643828,"internal_node_id":"0.0-97.0"},{"src":["ours/064585_ours.png","ce/064585_ce.png","gl/064585_gl.png"],"rank_data":[0,1,2],"rank_result":["ours/064585_ours.png","ce/064585_ce.png","gl/064585_gl.png"],"rt":3584,"trial_type":"image-rank","trial_index":98,"time_elapsed":647412,"internal_node_id":"0.0-98.0"},{"src":["ours/008359_ours.png","gl/008359_gl.png","ce/008359_ce.png"],"rank_data":[1,2,0],"rank_result":["ce/008359_ce.png","ours/008359_ours.png","gl/008359_gl.png"],"rt":6584,"trial_type":"image-rank","trial_index":99,"time_elapsed":653996,"internal_node_id":"0.0-99.0"},{"src":["ce/075566_ce.png","ours/075566_ours.png","gl/075566_gl.png"],"rank_data":[1,0,2],"rank_result":["ours/075566_ours.png","ce/075566_ce.png","gl/075566_gl.png"],"rt":6936,"trial_type":"image-rank","trial_index":100,"time_elapsed":660932,"internal_node_id":"0.0-100.0"},{"src":["gl/050280_gl.png","ce/050280_ce.png","ours/050280_ours.png"],"rank_data":[1,2,0],"rank_result":["ours/050280_ours.png","gl/050280_gl.png","ce/050280_ce.png"],"rt":3928,"trial_type":"image-rank","trial_index":101,"time_elapsed":664860,"internal_node_id":"0.0-101.0"},{"src":["gl/184499_gl.png","ours/184499_ours.png","ce/184499_ce.png"],"rank_data":[2,1,0],"rank_result":["ce/184499_ce.png","ours/184499_ours.png","gl/184499_gl.png"],"rt":3488,"trial_type":"image-rank","trial_index":102,"time_elapsed":668348,"internal_node_id":"0.0-102.0"}]