[{"rt":8778,"stimulus":"Welcome to the experiment. Press any key to begin.","key_press":85,"trial_type":"html-keyboard-response","trial_index":0,"time_elapsed":8780,"internal_node_id":"0.0-0.0"},{"rt":1474,"stimulus":"<p>In this experiment, three images of people will appear in the center of the screen.</p><p>Your task is to rank these images based on how <strong>real</strong> you think they are.<p>The ranking level is between 1 to 3, with <strong>1</strong> representing the most realistic one and <strong>3</strong> the least realistic one.</p><p>There are totally 100 groups of images. The time to rank is not limited. </p> <p>When you finish one group, click the <strong>Continue</strong> button to continue to the next one.</p><p>At the end of the experiment, your name and age will be asked and recorded.</p>","key_press":75,"trial_type":"html-keyboard-response","trial_index":1,"time_elapsed":10256,"internal_node_id":"0.0-1.0"},{"rt":null,"stimulus":"<div style=\"font-size:60px;\"></div>","key_press":null,"trial_type":"html-keyboard-response","trial_index":2,"time_elapsed":10858,"internal_node_id":"0.0-2.0"},{"src":["ours/015527_ours.png","ce/015527_ce.png","gl/015527_gl.png"],"rank_data":[0,2,1],"rank_result":["ours/015527_ours.png","gl/015527_gl.png","ce/015527_ce.png"],"rt":23785,"trial_type":"image-rank","trial_index":3,"time_elapsed":34644,"internal_node_id":"0.0-3.0"},{"src":["ce/000540_ce.png","gl/000540_gl.png","ours/000540_ours.png"],"rank_data":[1,2,0],"rank_result":["ours/000540_ours.png","ce/000540_ce.png","gl/000540_gl.png"],"rt":10219,"trial_type":"image-rank","trial_index":4,"time_elapsed":44865,"internal_node_id":"0.0-4.0"},{"src":["ce/064765_ce.png","gl/064765_gl.png","ours/064765_ours.png"],"rank_data":[2,1,0],"rank_result":["ours/064765_ours.png","gl/064765_gl.png","ce/064765_ce.png"],"rt":10548,"trial_type":"image-rank","trial_index":5,"time_elapsed":55414,"internal_node_id":"0.0-5.0"},{"src":["ours/002088_ours.png","ce/002088_ce.png","gl/002088_gl.png"],"rank_data":[0,2,1],"rank_result":["ours/002088_ours.png","gl/002088_gl.png","ce/002088_ce.png"],"rt":10221,"trial_type":"image-rank","trial_index":6,"time_elapsed":65635,"internal_node_id":"0.0-6.0"},{"src":["ce/095259_ce.png","gl/095259_gl.png","ours/095259_ours.png"],"rank_data":[1,2,0],"rank_result":["ours/095259_ours.png","ce/095259_ce.png","gl/095259_gl.png"],"rt":16473,"trial_type":"image-rank","trial_index":7,"time_elapsed":82109,"internal_node_id":"0.0-7.0"},{"src":["ce/177061_ce.png","ours/177061_ours.png","gl/177061_gl.png"],"rank_data":[2,0,1],"rank_result":["ours/177061_ours.png","gl/177061_gl.png","ce/177061_ce.png"],"rt":9009,"trial_type":"image-rank","trial_index":8,"time_elapsed":91118,"internal_node_id":"0.0-8.0"},{"src":["ours/042368_ours.png","gl/042368_gl.png","ce/042368_ce.png"],"rank_data":[0,2,1],"rank_result":["ours/042368_ours.png","ce/042368_ce.png","gl/042368_gl.png"],"rt":8769,"trial_type":"image-rank","trial_index":9,"time_elapsed":99887,"internal_node_id":"0.0-9.0"},{"src":["ce/156516_ce.png","gl/156516_gl.png","ours/156516_ours.png"],"rank_data":[2,0,1],"rank_result":["gl/156516_gl.png","ours/156516_ours.png","ce/156516_ce.png"],"rt":27201,"trial_type":"image-rank","trial_index":10,"time_elapsed":127090,"internal_node_id":"0.0-10.0"},{"src":["ce/109494_ce.png","ours/109494_ours.png","gl/109494_gl.png"],"rank_data":[2,0,1],"rank_result":["ours/109494_ours.png","gl/109494_gl.png","ce/109494_ce.png"],"rt":17666,"trial_type":"image-rank","trial_index":11,"time_elapsed":144757,"internal_node_id":"0.0-11.0"},{"src":["gl/113350_gl.png","ours/113350_ours.png","ce/113350_ce.png"],"rank_data":[2,0,1],"rank_result":["ours/113350_ours.png","ce/113350_ce.png","gl/113350_gl.png"],"rt":7534,"trial_type":"image-rank","trial_index":12,"time_elapsed":152292,"internal_node_id":"0.0-12.0"},{"src":["gl/074012_gl.png","ce/074012_ce.png","ours/074012_ours.png"],"rank_data":[1,2,0],"rank_result":["ours/074012_ours.png","gl/074012_gl.png","ce/074012_ce.png"],"rt":9540,"trial_type":"image-rank","trial_index":13,"time_elapsed":161835,"internal_node_id":"0.0-13.0"},{"src":["ce/135813_ce.png","gl/135813_gl.png","ours/135813_ours.png"],"rank_data":[2,1,0],"rank_result":["ours/135813_ours.png","gl/135813_gl.png","ce/135813_ce.png"],"rt":16929,"trial_type":"image-rank","trial_index":14,"time_elapsed":178765,"internal_node_id":"0.0-14.0"},{"src":["ce/038179_ce.png","gl/038179_gl.png","ours/038179_ours.png"],"rank_data":[2,1,0],"rank_result":["ours/038179_ours.png","gl/038179_gl.png","ce/038179_ce.png"],"rt":11000,"trial_type":"image-rank","trial_index":15,"time_elapsed":189765,"internal_node_id":"0.0-15.0"},{"src":["ours/114913_ours.png","ce/114913_ce.png","gl/114913_gl.png"],"rank_data":[0,2,1],"rank_result":["ours/114913_ours.png","gl/114913_gl.png","ce/114913_ce.png"],"rt":7261,"trial_type":"image-rank","trial_index":16,"time_elapsed":197026,"internal_node_id":"0.0-16.0"},{"src":["ours/023093_ours.png","gl/023093_gl.png","ce/023093_ce.png"],"rank_data":[0,1,2],"rank_result":["ours/023093_ours.png","gl/023093_gl.png","ce/023093_ce.png"],"rt":6808,"trial_type":"image-rank","trial_index":17,"time_elapsed":203834,"internal_node_id":"0.0-17.0"},{"src":["ours/002229_ours.png","gl/002229_gl.png","ce/002229_ce.png"],"rank_data":[0,2,1],"rank_result":["ours/002229_ours.png","ce/002229_ce.png","gl/002229_gl.png"],"rt":6216,"trial_type":"image-rank","trial_index":18,"time_elapsed":210051,"internal_node_id":"0.0-18.0"},{"src":["ce/079328_ce.png","gl/079328_gl.png","ours/079328_ours.png"],"rank_data":[1,2,0],"rank_result":["ours/079328_ours.png","ce/079328_ce.png","gl/079328_gl.png"],"rt":4669,"trial_type":"image-rank","trial_index":19,"time_elapsed":214722,"internal_node_id":"0.0-19.0"},{"src":["ce/176792_ce.png","gl/176792_gl.png","ours/176792_ours.png"],"rank_data":[2,1,0],"rank_result":["ours/176792_ours.png","gl/176792_gl.png","ce/176792_ce.png"],"rt":12859,"trial_type":"image-rank","trial_index":20,"time_elapsed":227581,"internal_node_id":"0.0-20.0"},{"src":["ce/092133_ce.png","gl/092133_gl.png","ours/092133_ours.png"],"rank_data":[0,2,1],"rank_result":["ce/092133_ce.png","ours/092133_ours.png","gl/092133_gl.png"],"rt":18149,"trial_type":"image-rank","trial_index":21,"time_elapsed":245730,"internal_node_id":"0.0-21.0"},{"src":["ce/007497_ce.png","gl/007497_gl.png","ours/007497_ours.png"],"rank_data":[2,1,0],"rank_result":["ours/007497_ours.png","gl/007497_gl.png","ce/007497_ce.png"],"rt":5370,"trial_type":"image-rank","trial_index":22,"time_elapsed":251101,"internal_node_id":"0.0-22.0"},{"src":["ours/041139_ours.png","gl/041139_gl.png","ce/041139_ce.png"],"rank_data":[0,1,2],"rank_result":["ours/041139_ours.png","gl/041139_gl.png","ce/041139_ce.png"],"rt":7483,"trial_type":"image-rank","trial_index":23,"time_elapsed":258585,"internal_node_id":"0.0-23.0"},{"src":["gl/070216_gl.png","ce/070216_ce.png","ours/070216_ours.png"],"rank_data":[2,1,0],"rank_result":["ours/070216_ours.png","ce/070216_ce.png","gl/070216_gl.png"],"rt":4074,"trial_type":"image-rank","trial_index":24,"time_elapsed":262660,"internal_node_id":"0.0-24.0"},{"src":["gl/017769_gl.png","ours/017769_ours.png","ce/017769_ce.png"],"rank_data":[1,0,2],"rank_result":["ours/017769_ours.png","gl/017769_gl.png","ce/017769_ce.png"],"rt":5639,"trial_type":"image-rank","trial_index":25,"time_elapsed":268300,"internal_node_id":"0.0-25.0"},{"src":["ce/039630_ce.png","gl/039630_gl.png","ours/039630_ours.png"],"rank_data":[2,1,0],"rank_result":["ours/039630_ours.png","gl/039630_gl.png","ce/039630_ce.png"],"rt":3140,"trial_type":"image-rank","trial_index":26,"time_elapsed":271440,"internal_node_id":"0.0-26.0"},{"src":["ours/141295_ours.png","gl/141295_gl.png","ce/141295_ce.png"],"rank_data":[0,2,1],"rank_result":["ours/141295_ours.png","ce/141295_ce.png","gl/141295_gl.png"],"rt":6750,"trial_type":"image-rank","trial_index":27,"time_elapsed":278190,"internal_node_id":"0.0-27.0"},{"src":["ours/016352_ours.png","ce/016352_ce.png","gl/016352_gl.png"],"rank_data":[0,2,1],"rank_result":["ours/016352_ours.png","gl/016352_gl.png","ce/016352_ce.png"],"rt":7053,"trial_type":"image-rank","trial_index":28,"time_elapsed":285243,"internal_node_id":"0.0-28.0"},{"src":["gl/127504_gl.png","ce/127504_ce.png","ours/127504_ours.png"],"rank_data":[1,2,0],"rank_result":["ours/127504_ours.png","gl/127504_gl.png","ce/127504_ce.png"],"rt":6484,"trial_type":"image-rank","trial_index":29,"time_elapsed":291727,"internal_node_id":"0.0-29.0"},{"src":["gl/168260_gl.png","ce/168260_ce.png","ours/168260_ours.png"],"rank_data":[1,2,0],"rank_result":["ours/168260_ours.png","gl/168260_gl.png","ce/168260_ce.png"],"rt":5680,"trial_type":"image-rank","trial_index":30,"time_elapsed":297407,"internal_node_id":"0.0-30.0"},{"src":["gl/197470_gl.png","ce/197470_ce.png","ours/197470_ours.png"],"rank_data":[1,2,0],"rank_result":["ours/197470_ours.png","gl/197470_gl.png","ce/197470_ce.png"],"rt":5099,"trial_type":"image-rank","trial_index":31,"time_elapsed":302507,"internal_node_id":"0.0-31.0"},{"src":["ce/183586_ce.png","gl/183586_gl.png","ours/183586_ours.png"],"rank_data":[1,2,0],"rank_result":["ours/183586_ours.png","ce/183586_ce.png","gl/183586_gl.png"],"rt":5580,"trial_type":"image-rank","trial_index":32,"time_elapsed":308088,"internal_node_id":"0.0-32.0"},{"src":["ours/179028_ours.png","ce/179028_ce.png","gl/179028_gl.png"],"rank_data":[0,1,2],"rank_result":["ours/179028_ours.png","ce/179028_ce.png","gl/179028_gl.png"],"rt":6488,"trial_type":"image-rank","trial_index":33,"time_elapsed":314576,"internal_node_id":"0.0-33.0"},{"src":["ce/067594_ce.png","gl/067594_gl.png","ours/067594_ours.png"],"rank_data":[2,1,0],"rank_result":["ours/067594_ours.png","gl/067594_gl.png","ce/067594_ce.png"],"rt":10660,"trial_type":"image-rank","trial_index":34,"time_elapsed":325237,"internal_node_id":"0.0-34.0"},{"src":["ours/138845_ours.png","ce/138845_ce.png","gl/138845_gl.png"],"rank_data":[0,1,2],"rank_result":["ours/138845_ours.png","ce/138845_ce.png","gl/138845_gl.png"],"rt":4377,"trial_type":"image-rank","trial_index":35,"time_elapsed":329614,"internal_node_id":"0.0-35.0"},{"src":["ce/124523_ce.png","gl/124523_gl.png","ours/124523_ours.png"],"rank_data":[1,2,0],"rank_result":["ours/124523_ours.png","ce/124523_ce.png","gl/124523_gl.png"],"rt":4042,"trial_type":"image-rank","trial_index":36,"time_elapsed":333656,"internal_node_id":"0.0-36.0"},{"src":["ce/072806_ce.png","ours/072806_ours.png","gl/072806_gl.png"],"rank_data":[0,1,2],"rank_result":["ce/072806_ce.png","ours/072806_ours.png","gl/072806_gl.png"],"rt":7745,"trial_type":"image-rank","trial_index":37,"time_elapsed":341402,"internal_node_id":"0.0-37.0"},{"src":["ours/161113_ours.png","gl/161113_gl.png","ce/161113_ce.png"],"rank_data":[0,1,2],"rank_result":["ours/161113_ours.png","gl/161113_gl.png","ce/161113_ce.png"],"rt":5041,"trial_type":"image-rank","trial_index":38,"time_elapsed":346445,"internal_node_id":"0.0-38.0"},{"src":["ours/121274_ours.png","ce/121274_ce.png","gl/121274_gl.png"],"rank_data":[0,2,1],"rank_result":["ours/121274_ours.png","gl/121274_gl.png","ce/121274_ce.png"],"rt":3902,"trial_type":"image-rank","trial_index":39,"time_elapsed":350347,"internal_node_id":"0.0-39.0"},{"src":["gl/089223_gl.png","ce/089223_ce.png","ours/089223_ours.png"],"rank_data":[1,2,0],"rank_result":["ours/089223_ours.png","gl/089223_gl.png","ce/089223_ce.png"],"rt":6125,"trial_type":"image-rank","trial_index":40,"time_elapsed":356473,"internal_node_id":"0.0-40.0"},{"src":["ce/184597_ce.png","ours/184597_ours.png","gl/184597_gl.png"],"rank_data":[2,0,1],"rank_result":["ours/184597_ours.png","gl/184597_gl.png","ce/184597_ce.png"],"rt":6854,"trial_type":"image-rank","trial_index":41,"time_elapsed":363327,"internal_node_id":"0.0-41.0"},{"src":["gl/196455_gl.png","ce/196455_ce.png","ours/196455_ours.png"],"rank_data":[2,1,0],"rank_result":["ours/196455_ours.png","ce/196455_ce.png","gl/196455_gl.png"],"rt":4914,"trial_type":"image-rank","trial_index":42,"time_elapsed":368241,"internal_node_id":"0.0-42.0"},{"src":["gl/007656_gl.png","ours/007656_ours.png","ce/007656_ce.png"],"rank_data":[1,0,2],"rank_result":["ours/007656_ours.png","gl/007656_gl.png","ce/007656_ce.png"],"rt":6031,"trial_type":"image-rank","trial_index":43,"time_elapsed":374272,"internal_node_id":"0.0-43.0"},{"src":["ours/183032_ours.png","ce/183032_ce.png","gl/183032_gl.png"],"rank_data":[0,2,1],"rank_result":["ours/183032_ours.png","gl/183032_gl.png","ce/183032_ce.png"],"rt":46903,"trial_type":"image-rank","trial_index":44,"time_elapsed":421176,"internal_node_id":"0.0-44.0"},{"src":["ours/198736_ours.png","ce/198736_ce.png","gl/198736_gl.png"],"rank_data":[0,1,2],"rank_result":["ours/198736_ours.png","ce/198736_ce.png","gl/198736_gl.png"],"rt":32210,"trial_type":"image-rank","trial_index":45,"time_elapsed":453387,"internal_node_id":"0.0-45.0"},{"src":["gl/135724_gl.png","ce/135724_ce.png","ours/135724_ours.png"],"rank_data":[2,1,0],"rank_result":["ours/135724_ours.png","ce/135724_ce.png","gl/135724_gl.png"],"rt":11038,"trial_type":"image-rank","trial_index":46,"time_elapsed":464426,"internal_node_id":"0.0-46.0"},{"src":["gl/089001_gl.png","ours/089001_ours.png","ce/089001_ce.png"],"rank_data":[2,0,1],"rank_result":["ours/089001_ours.png","ce/089001_ce.png","gl/089001_gl.png"],"rt":4601,"trial_type":"image-rank","trial_index":47,"time_elapsed":469027,"internal_node_id":"0.0-47.0"},{"src":["ce/136194_ce.png","gl/136194_gl.png","ours/136194_ours.png"],"rank_data":[1,2,0],"rank_result":["ours/136194_ours.png","ce/136194_ce.png","gl/136194_gl.png"],"rt":5197,"trial_type":"image-rank","trial_index":48,"time_elapsed":474224,"internal_node_id":"0.0-48.0"},{"src":["gl/070082_gl.png","ce/070082_ce.png","ours/070082_ours.png"],"rank_data":[1,2,0],"rank_result":["ours/070082_ours.png","gl/070082_gl.png","ce/070082_ce.png"],"rt":6540,"trial_type":"image-rank","trial_index":49,"time_elapsed":480765,"internal_node_id":"0.0-49.0"},{"src":["gl/169358_gl.png","ce/169358_ce.png","ours/169358_ours.png"],"rank_data":[1,2,0],"rank_result":["ours/169358_ours.png","gl/169358_gl.png","ce/169358_ce.png"],"rt":5107,"trial_type":"image-rank","trial_index":50,"time_elapsed":485872,"internal_node_id":"0.0-50.0"},{"src":["ce/035066_ce.png","gl/035066_gl.png","ours/035066_ours.png"],"rank_data":[1,2,0],"rank_result":["ours/035066_ours.png","ce/035066_ce.png","gl/035066_gl.png"],"rt":4907,"trial_type":"image-rank","trial_index":51,"time_elapsed":490780,"internal_node_id":"0.0-51.0"},{"src":["ours/006865_ours.png","gl/006865_gl.png","ce/006865_ce.png"],"rank_data":[0,1,2],"rank_result":["ours/006865_ours.png","gl/006865_gl.png","ce/006865_ce.png"],"rt":8355,"trial_type":"image-rank","trial_index":52,"time_elapsed":499136,"internal_node_id":"0.0-52.0"},{"src":["ce/091030_ce.png","gl/091030_gl.png","ours/091030_ours.png"],"rank_data":[1,2,0],"rank_result":["ours/091030_ours.png","ce/091030_ce.png","gl/091030_gl.png"],"rt":12020,"trial_type":"image-rank","trial_index":53,"time_elapsed":511156,"internal_node_id":"0.0-53.0"},{"src":["gl/077362_gl.png","ce/077362_ce.png","ours/077362_ours.png"],"rank_data":[2,1,0],"rank_result":["ours/077362_ours.png","ce/077362_ce.png","gl/077362_gl.png"],"rt":47479,"trial_type":"image-rank","trial_index":54,"time_elapsed":558635,"internal_node_id":"0.0-54.0"},{"src":["ours/041133_ours.png","ce/041133_ce.png","gl/041133_gl.png"],"rank_data":[0,1,2],"rank_result":["ours/041133_ours.png","ce/041133_ce.png","gl/041133_gl.png"],"rt":11799,"trial_type":"image-rank","trial_index":55,"time_elapsed":570434,"internal_node_id":"0.0-55.0"},{"src":["ours/077739_ours.png","gl/077739_gl.png","ce/077739_ce.png"],"rank_data":[0,2,1],"rank_result":["ours/077739_ours.png","ce/077739_ce.png","gl/077739_gl.png"],"rt":4023,"trial_type":"image-rank","trial_index":56,"time_elapsed":574457,"internal_node_id":"0.0-56.0"},{"src":["ours/118106_ours.png","gl/118106_gl.png","ce/118106_ce.png"],"rank_data":[1,2,0],"rank_result":["ce/118106_ce.png","ours/118106_ours.png","gl/118106_gl.png"],"rt":65695,"trial_type":"image-rank","trial_index":57,"time_elapsed":640152,"internal_node_id":"0.0-57.0"},{"src":["gl/082732_gl.png","ce/082732_ce.png","ours/082732_ours.png"],"rank_data":[1,2,0],"rank_result":["ours/082732_ours.png","gl/082732_gl.png","ce/082732_ce.png"],"rt":13863,"trial_type":"image-rank","trial_index":58,"time_elapsed":654015,"internal_node_id":"0.0-58.0"},{"src":["gl/075046_gl.png","ce/075046_ce.png","ours/075046_ours.png"],"rank_data":[2,1,0],"rank_result":["ours/075046_ours.png","ce/075046_ce.png","gl/075046_gl.png"],"rt":8791,"trial_type":"image-rank","trial_index":59,"time_elapsed":662806,"internal_node_id":"0.0-59.0"},{"src":["ours/067391_ours.png","ce/067391_ce.png","gl/067391_gl.png"],"rank_data":[0,2,1],"rank_result":["ours/067391_ours.png","gl/067391_gl.png","ce/067391_ce.png"],"rt":4853,"trial_type":"image-rank","trial_index":60,"time_elapsed":667660,"internal_node_id":"0.0-60.0"},{"src":["ce/096480_ce.png","ours/096480_ours.png","gl/096480_gl.png"],"rank_data":[2,0,1],"rank_result":["ours/096480_ours.png","gl/096480_gl.png","ce/096480_ce.png"],"rt":5978,"trial_type":"image-rank","trial_index":61,"time_elapsed":673638,"internal_node_id":"0.0-61.0"},{"src":["ce/112760_ce.png","ours/112760_ours.png","gl/112760_gl.png"],"rank_data":[2,0,1],"rank_result":["ours/112760_ours.png","gl/112760_gl.png","ce/112760_ce.png"],"rt":17993,"trial_type":"image-rank","trial_index":62,"time_elapsed":691632,"internal_node_id":"0.0-62.0"},{"src":["gl/120198_gl.png","ce/120198_ce.png","ours/120198_ours.png"],"rank_data":[2,1,0],"rank_result":["ours/120198_ours.png","ce/120198_ce.png","gl/120198_gl.png"],"rt":10118,"trial_type":"image-rank","trial_index":63,"time_elapsed":701750,"internal_node_id":"0.0-63.0"},{"src":["ce/022200_ce.png","ours/022200_ours.png","gl/022200_gl.png"],"rank_data":[1,0,2],"rank_result":["ours/022200_ours.png","ce/022200_ce.png","gl/022200_gl.png"],"rt":7553,"trial_type":"image-rank","trial_index":64,"time_elapsed":709303,"internal_node_id":"0.0-64.0"},{"src":["ours/031747_ours.png","ce/031747_ce.png","gl/031747_gl.png"],"rank_data":[0,1,2],"rank_result":["ours/031747_ours.png","ce/031747_ce.png","gl/031747_gl.png"],"rt":8926,"trial_type":"image-rank","trial_index":65,"time_elapsed":718229,"internal_node_id":"0.0-65.0"},{"src":["gl/187724_gl.png","ce/187724_ce.png","ours/187724_ours.png"],"rank_data":[2,1,0],"rank_result":["ours/187724_ours.png","ce/187724_ce.png","gl/187724_gl.png"],"rt":8762,"trial_type":"image-rank","trial_index":66,"time_elapsed":726992,"internal_node_id":"0.0-66.0"},{"src":["ours/127940_ours.png","ce/127940_ce.png","gl/127940_gl.png"],"rank_data":[2,1,0],"rank_result":["gl/127940_gl.png","ce/127940_ce.png","ours/127940_ours.png"],"rt":19262,"trial_type":"image-rank","trial_index":67,"time_elapsed":746255,"internal_node_id":"0.0-67.0"},{"src":["ours/183387_ours.png","gl/183387_gl.png","ce/183387_ce.png"],"rank_data":[0,2,1],"rank_result":["ours/183387_ours.png","ce/183387_ce.png","gl/183387_gl.png"],"rt":5278,"trial_type":"image-rank","trial_index":68,"time_elapsed":751533,"internal_node_id":"0.0-68.0"},{"src":["gl/054108_gl.png","ce/054108_ce.png","ours/054108_ours.png"],"rank_data":[1,2,0],"rank_result":["ours/054108_ours.png","gl/054108_gl.png","ce/054108_ce.png"],"rt":4827,"trial_type":"image-rank","trial_index":69,"time_elapsed":756361,"internal_node_id":"0.0-69.0"},{"src":["ours/051791_ours.png","gl/051791_gl.png","ce/051791_ce.png"],"rank_data":[0,2,1],"rank_result":["ours/051791_ours.png","ce/051791_ce.png","gl/051791_gl.png"],"rt":4818,"trial_type":"image-rank","trial_index":70,"time_elapsed":761179,"internal_node_id":"0.0-70.0"},{"src":["gl/074180_gl.png","ours/074180_ours.png","ce/074180_ce.png"],"rank_data":[2,0,1],"rank_result":["ours/074180_ours.png","ce/074180_ce.png","gl/074180_gl.png"],"rt":4526,"trial_type":"image-rank","trial_index":71,"time_elapsed":765705,"internal_node_id":"0.0-71.0"},{"src":["gl/174558_gl.png","ours/174558_ours.png","ce/174558_ce.png"],"rank_data":[1,0,2],"rank_result":["ours/174558_ours.png","gl/174558_gl.png","ce/174558_ce.png"],"rt":7310,"trial_type":"image-rank","trial_index":72,"time_elapsed":773016,"internal_node_id":"0.0-72.0"},{"src":["ce/116750_ce.png","ours/116750_ours.png","gl/116750_gl.png"],"rank_data":[1,0,2],"rank_result":["ours/116750_ours.png","ce/116750_ce.png","gl/116750_gl.png"],"rt":4297,"trial_type":"image-rank","trial_index":73,"time_elapsed":777313,"internal_node_id":"0.0-73.0"},{"src":["ours/163089_ours.png","gl/163089_gl.png","ce/163089_ce.png"],"rank_data":[0,1,2],"rank_result":["ours/163089_ours.png","gl/163089_gl.png","ce/163089_ce.png"],"rt":11026,"trial_type":"image-rank","trial_index":74,"time_elapsed":788340,"internal_node_id":"0.0-74.0"},{"src":["ce/043878_ce.png","ours/043878_ours.png","gl/043878_gl.png"],"rank_data":[2,0,1],"rank_result":["ours/043878_ours.png","gl/043878_gl.png","ce/043878_ce.png"],"rt":4743,"trial_type":"image-rank","trial_index":75,"time_elapsed":793084,"internal_node_id":"0.0-75.0"},{"src":["ce/190778_ce.png","ours/190778_ours.png","gl/190778_gl.png"],"rank_data":[1,0,2],"rank_result":["ours/190778_ours.png","ce/190778_ce.png","gl/190778_gl.png"],"rt":6718,"trial_type":"image-rank","trial_index":76,"time_elapsed":799802,"internal_node_id":"0.0-76.0"},{"src":["ce/099225_ce.png","gl/099225_gl.png","ours/099225_ours.png"],"rank_data":[2,1,0],"rank_result":["ours/099225_ours.png","gl/099225_gl.png","ce/099225_ce.png"],"rt":5598,"trial_type":"image-rank","trial_index":77,"time_elapsed":805401,"internal_node_id":"0.0-77.0"},{"src":["gl/040874_gl.png","ce/040874_ce.png","ours/040874_ours.png"],"rank_data":[1,2,0],"rank_result":["ours/040874_ours.png","gl/040874_gl.png","ce/040874_ce.png"],"rt":3718,"trial_type":"image-rank","trial_index":78,"time_elapsed":809120,"internal_node_id":"0.0-78.0"},{"src":["ce/198611_ce.png","gl/198611_gl.png","ours/198611_ours.png"],"rank_data":[2,0,1],"rank_result":["gl/198611_gl.png","ours/198611_ours.png","ce/198611_ce.png"],"rt":11904,"trial_type":"image-rank","trial_index":79,"time_elapsed":821025,"internal_node_id":"0.0-79.0"},{"src":["ce/101222_ce.png","gl/101222_gl.png","ours/101222_ours.png"],"rank_data":[1,2,0],"rank_result":["ours/101222_ours.png","ce/101222_ce.png","gl/101222_gl.png"],"rt":4760,"trial_type":"image-rank","trial_index":80,"time_elapsed":825785,"internal_node_id":"0.0-80.0"},{"src":["gl/139996_gl.png","ours/139996_ours.png","ce/139996_ce.png"],"rank_data":[1,0,2],"rank_result":["ours/139996_ours.png","gl/139996_gl.png","ce/139996_ce.png"],"rt":4220,"trial_type":"image-rank","trial_index":81,"time_elapsed":830005,"internal_node_id":"0.0-81.0"},{"src":["gl/185973_gl.png","ce/185973_ce.png","ours/185973_ours.png"],"rank_data":[2,1,0],"rank_result":["ours/185973_ours.png","ce/185973_ce.png","gl/185973_gl.png"],"rt":4419,"trial_type":"image-rank","trial_index":82,"time_elapsed":834424,"internal_node_id":"0.0-82.0"},{"src":["ours/093360_ours.png","ce/093360_ce.png","gl/093360_gl.png"],"rank_data":[0,2,1],"rank_result":["ours/093360_ours.png","gl/093360_gl.png","ce/093360_ce.png"],"rt":4510,"trial_type":"image-rank","trial_index":83,"time_elapsed":838934,"internal_node_id":"0.0-83.0"},{"src":["gl/087895_gl.png","ours/087895_ours.png","ce/087895_ce.png"],"rank_data":[1,0,2],"rank_result":["ours/087895_ours.png","gl/087895_gl.png","ce/087895_ce.png"],"rt":4577,"trial_type":"image-rank","trial_index":84,"time_elapsed":843512,"internal_node_id":"0.0-84.0"},{"src":["ce/024976_ce.png","ours/024976_ours.png","gl/024976_gl.png"],"rank_data":[1,0,2],"rank_result":["ours/024976_ours.png","ce/024976_ce.png","gl/024976_gl.png"],"rt":4270,"trial_type":"image-rank","trial_index":85,"time_elapsed":847783,"internal_node_id":"0.0-85.0"},{"src":["ours/007290_ours.png","gl/007290_gl.png","ce/007290_ce.png"],"rank_data":[0,1,2],"rank_result":["ours/007290_ours.png","gl/007290_gl.png","ce/007290_ce.png"],"rt":3660,"trial_type":"image-rank","trial_index":86,"time_elapsed":851443,"internal_node_id":"0.0-86.0"},{"src":["ours/107332_ours.png","ce/107332_ce.png","gl/107332_gl.png"],"rank_data":[0,1,2],"rank_result":["ours/107332_ours.png","ce/107332_ce.png","gl/107332_gl.png"],"rt":4671,"trial_type":"image-rank","trial_index":87,"time_elapsed":856114,"internal_node_id":"0.0-87.0"},{"src":["ours/066130_ours.png","gl/066130_gl.png","ce/066130_ce.png"],"rank_data":[0,2,1],"rank_result":["ours/066130_ours.png","ce/066130_ce.png","gl/066130_gl.png"],"rt":2990,"trial_type":"image-rank","trial_index":88,"time_elapsed":859105,"internal_node_id":"0.0-88.0"},{"src":["ours/067203_ours.png","ce/067203_ce.png","gl/067203_gl.png"],"rank_data":[0,1,2],"rank_result":["ours/067203_ours.png","ce/067203_ce.png","gl/067203_gl.png"],"rt":3485,"trial_type":"image-rank","trial_index":89,"time_elapsed":862591,"internal_node_id":"0.0-89.0"},{"src":["ce/043611_ce.png","gl/043611_gl.png","ours/043611_ours.png"],"rank_data":[1,2,0],"rank_result":["ours/043611_ours.png","ce/043611_ce.png","gl/043611_gl.png"],"rt":3567,"trial_type":"image-rank","trial_index":90,"time_elapsed":866158,"internal_node_id":"0.0-90.0"},{"src":["gl/086755_gl.png","ours/086755_ours.png","ce/086755_ce.png"],"rank_data":[1,0,2],"rank_result":["ours/086755_ours.png","gl/086755_gl.png","ce/086755_ce.png"],"rt":5477,"trial_type":"image-rank","trial_index":91,"time_elapsed":871636,"internal_node_id":"0.0-91.0"},{"src":["ours/085753_ours.png","gl/085753_gl.png","ce/085753_ce.png"],"rank_data":[0,2,1],"rank_result":["ours/085753_ours.png","ce/085753_ce.png","gl/085753_gl.png"],"rt":5832,"trial_type":"image-rank","trial_index":92,"time_elapsed":877468,"internal_node_id":"0.0-92.0"},{"src":["ours/068696_ours.png","ce/068696_ce.png","gl/068696_gl.png"],"rank_data":[0,1,2],"rank_result":["ours/068696_ours.png","ce/068696_ce.png","gl/068696_gl.png"],"rt":5900,"trial_type":"image-rank","trial_index":93,"time_elapsed":883368,"internal_node_id":"0.0-93.0"},{"src":["ce/173033_ce.png","ours/173033_ours.png","gl/173033_gl.png"],"rank_data":[2,0,1],"rank_result":["ours/173033_ours.png","gl/173033_gl.png","ce/173033_ce.png"],"rt":4008,"trial_type":"image-rank","trial_index":94,"time_elapsed":887377,"internal_node_id":"0.0-94.0"},{"src":["ours/144867_ours.png","ce/144867_ce.png","gl/144867_gl.png"],"rank_data":[0,1,2],"rank_result":["ours/144867_ours.png","ce/144867_ce.png","gl/144867_gl.png"],"rt":5636,"trial_type":"image-rank","trial_index":95,"time_elapsed":893014,"internal_node_id":"0.0-95.0"},{"src":["gl/162072_gl.png","ours/162072_ours.png","ce/162072_ce.png"],"rank_data":[2,0,1],"rank_result":["ours/162072_ours.png","ce/162072_ce.png","gl/162072_gl.png"],"rt":3216,"trial_type":"image-rank","trial_index":96,"time_elapsed":896230,"internal_node_id":"0.0-96.0"},{"src":["gl/039232_gl.png","ce/039232_ce.png","ours/039232_ours.png"],"rank_data":[1,2,0],"rank_result":["ours/039232_ours.png","gl/039232_gl.png","ce/039232_ce.png"],"rt":4995,"trial_type":"image-rank","trial_index":97,"time_elapsed":901225,"internal_node_id":"0.0-97.0"},{"src":["gl/066558_gl.png","ce/066558_ce.png","ours/066558_ours.png"],"rank_data":[1,2,0],"rank_result":["ours/066558_ours.png","gl/066558_gl.png","ce/066558_ce.png"],"rt":3887,"trial_type":"image-rank","trial_index":98,"time_elapsed":905113,"internal_node_id":"0.0-98.0"},{"src":["gl/157657_gl.png","ours/157657_ours.png","ce/157657_ce.png"],"rank_data":[1,0,2],"rank_result":["ours/157657_ours.png","gl/157657_gl.png","ce/157657_ce.png"],"rt":35101,"trial_type":"image-rank","trial_index":99,"time_elapsed":940214,"internal_node_id":"0.0-99.0"},{"src":["gl/107898_gl.png","ce/107898_ce.png","ours/107898_ours.png"],"rank_data":[2,1,0],"rank_result":["ours/107898_ours.png","ce/107898_ce.png","gl/107898_gl.png"],"rt":3238,"trial_type":"image-rank","trial_index":100,"time_elapsed":943453,"internal_node_id":"0.0-100.0"},{"src":["ours/177529_ours.png","ce/177529_ce.png","gl/177529_gl.png"],"rank_data":[0,2,1],"rank_result":["ours/177529_ours.png","gl/177529_gl.png","ce/177529_ce.png"],"rt":3172,"trial_type":"image-rank","trial_index":101,"time_elapsed":946625,"internal_node_id":"0.0-101.0"},{"src":["gl/114741_gl.png","ours/114741_ours.png","ce/114741_ce.png"],"rank_data":[1,0,2],"rank_result":["ours/114741_ours.png","gl/114741_gl.png","ce/114741_ce.png"],"rt":5031,"trial_type":"image-rank","trial_index":102,"time_elapsed":951657,"internal_node_id":"0.0-102.0"},{"rt":6869,"responses":"{\"Q0\":\"Sydney Shen\"}","trial_type":"survey-text","trial_index":103,"time_elapsed":958527,"internal_node_id":"0.0-103.0"},{"rt":6666,"responses":"{\"Q0\":\"26\"}","trial_type":"survey-text","trial_index":104,"time_elapsed":965193,"internal_node_id":"0.0-104.0"},{"rt":4475,"stimulus":"<div style=\"font-size:15px;\">You have reached the end of the experiment! Press any key to finish.</div>","key_press":77,"trial_type":"html-keyboard-response","trial_index":105,"time_elapsed":969669,"internal_node_id":"0.0-105.0"}]