[{"rt":4152,"stimulus":"Welcome to the experiment. Press any key to begin.","key_press":32,"trial_type":"html-keyboard-response","trial_index":0,"time_elapsed":4155,"internal_node_id":"0.0-0.0"},{"rt":4588,"stimulus":"<p>In this experiment, three images of people will appear in the center of the screen.</p><p>Your task is to rank these images based on how <strong>real</strong> you think they are.<p>The ranking level is between 1 to 3, with <strong>1</strong> representing the most real one and <strong>3</strong> the fakest one.</p><p>The time to rank is not limited. When you finish ranking, click the <strong>Continue</strong> button to continue.</p>","key_press":32,"trial_type":"html-keyboard-response","trial_index":1,"time_elapsed":8746,"internal_node_id":"0.0-1.0"},{"rt":null,"stimulus":"<div style=\"font-size:60px;\"></div>","key_press":null,"label":"fixation","trial_type":"html-keyboard-response","trial_index":2,"time_elapsed":9750,"internal_node_id":"0.0-2.0"},{"src":["ours/099352_ours.png","gl/099352_gl.png","ce/099352_ce.png"],"rank_data":[0,2,1],"rank_result":["ours/099352_ours.png","ce/099352_ce.png","gl/099352_gl.png"],"rt":18192,"trial_type":"image-rank","trial_index":3,"time_elapsed":27945,"internal_node_id":"0.0-3.0"},{"src":["ce/148881_ce.png","gl/148881_gl.png","ours/148881_ours.png"],"rank_data":[2,1,0],"rank_result":["ours/148881_ours.png","gl/148881_gl.png","ce/148881_ce.png"],"rt":5677,"trial_type":"image-rank","trial_index":4,"time_elapsed":33625,"internal_node_id":"0.0-4.0"},{"src":["ours/179719_ours.png","gl/179719_gl.png","ce/179719_ce.png"],"rank_data":[0,2,1],"rank_result":["ours/179719_ours.png","ce/179719_ce.png","gl/179719_gl.png"],"rt":4321,"trial_type":"image-rank","trial_index":5,"time_elapsed":37948,"internal_node_id":"0.0-5.0"},{"src":["gl/053525_gl.png","ours/053525_ours.png","ce/053525_ce.png"],"rank_data":[2,0,1],"rank_result":["ours/053525_ours.png","ce/053525_ce.png","gl/053525_gl.png"],"rt":7009,"trial_type":"image-rank","trial_index":6,"time_elapsed":44959,"internal_node_id":"0.0-6.0"},{"src":["ours/067730_ours.png","gl/067730_gl.png","ce/067730_ce.png"],"rank_data":[0,1,2],"rank_result":["ours/067730_ours.png","gl/067730_gl.png","ce/067730_ce.png"],"rt":6944,"trial_type":"image-rank","trial_index":7,"time_elapsed":51906,"internal_node_id":"0.0-7.0"},{"src":["ours/127940_ours.png","ce/127940_ce.png","gl/127940_gl.png"],"rank_data":[2,0,1],"rank_result":["ce/127940_ce.png","gl/127940_gl.png","ours/127940_ours.png"],"rt":10981,"trial_type":"image-rank","trial_index":8,"time_elapsed":62889,"internal_node_id":"0.0-8.0"},{"src":["ours/193334_ours.png","gl/193334_gl.png","ce/193334_ce.png"],"rank_data":[0,2,1],"rank_result":["ours/193334_ours.png","ce/193334_ce.png","gl/193334_gl.png"],"rt":5927,"trial_type":"image-rank","trial_index":9,"time_elapsed":68816,"internal_node_id":"0.0-9.0"},{"src":["ce/136900_ce.png","gl/136900_gl.png","ours/136900_ours.png"],"rank_data":[2,1,0],"rank_result":["ours/136900_ours.png","gl/136900_gl.png","ce/136900_ce.png"],"rt":6304,"trial_type":"image-rank","trial_index":10,"time_elapsed":75122,"internal_node_id":"0.0-10.0"},{"src":["ours/174446_ours.png","ce/174446_ce.png","gl/174446_gl.png"],"rank_data":[0,2,1],"rank_result":["ours/174446_ours.png","gl/174446_gl.png","ce/174446_ce.png"],"rt":5792,"trial_type":"image-rank","trial_index":11,"time_elapsed":80915,"internal_node_id":"0.0-11.0"},{"src":["gl/173898_gl.png","ce/173898_ce.png","ours/173898_ours.png"],"rank_data":[2,1,0],"rank_result":["ours/173898_ours.png","ce/173898_ce.png","gl/173898_gl.png"],"rt":4916,"trial_type":"image-rank","trial_index":12,"time_elapsed":85832,"internal_node_id":"0.0-12.0"},{"src":["ours/002700_ours.png","gl/002700_gl.png","ce/002700_ce.png"],"rank_data":[0,2,1],"rank_result":["ours/002700_ours.png","ce/002700_ce.png","gl/002700_gl.png"],"rt":3896,"trial_type":"image-rank","trial_index":13,"time_elapsed":89729,"internal_node_id":"0.0-13.0"},{"src":["gl/015011_gl.png","ce/015011_ce.png","ours/015011_ours.png"],"rank_data":[2,1,0],"rank_result":["ours/015011_ours.png","ce/015011_ce.png","gl/015011_gl.png"],"rt":5842,"trial_type":"image-rank","trial_index":14,"time_elapsed":95573,"internal_node_id":"0.0-14.0"},{"src":["ours/170929_ours.png","gl/170929_gl.png","ce/170929_ce.png"],"rank_data":[0,1,2],"rank_result":["ours/170929_ours.png","gl/170929_gl.png","ce/170929_ce.png"],"rt":5761,"trial_type":"image-rank","trial_index":15,"time_elapsed":101334,"internal_node_id":"0.0-15.0"},{"src":["gl/121286_gl.png","ce/121286_ce.png","ours/121286_ours.png"],"rank_data":[1,2,0],"rank_result":["ours/121286_ours.png","gl/121286_gl.png","ce/121286_ce.png"],"rt":5027,"trial_type":"image-rank","trial_index":16,"time_elapsed":106363,"internal_node_id":"0.0-16.0"},{"src":["ours/167676_ours.png","ce/167676_ce.png","gl/167676_gl.png"],"rank_data":[0,1,2],"rank_result":["ours/167676_ours.png","ce/167676_ce.png","gl/167676_gl.png"],"rt":5641,"trial_type":"image-rank","trial_index":17,"time_elapsed":112006,"internal_node_id":"0.0-17.0"},{"src":["gl/140651_gl.png","ce/140651_ce.png","ours/140651_ours.png"],"rank_data":[2,1,0],"rank_result":["ours/140651_ours.png","ce/140651_ce.png","gl/140651_gl.png"],"rt":5072,"trial_type":"image-rank","trial_index":18,"time_elapsed":117080,"internal_node_id":"0.0-18.0"},{"src":["ours/165950_ours.png","ce/165950_ce.png","gl/165950_gl.png"],"rank_data":[0,1,2],"rank_result":["ours/165950_ours.png","ce/165950_ce.png","gl/165950_gl.png"],"rt":3588,"trial_type":"image-rank","trial_index":19,"time_elapsed":120670,"internal_node_id":"0.0-19.0"},{"src":["gl/064984_gl.png","ours/064984_ours.png","ce/064984_ce.png"],"rank_data":[0,1,2],"rank_result":["gl/064984_gl.png","ours/064984_ours.png","ce/064984_ce.png"],"rt":5197,"trial_type":"image-rank","trial_index":20,"time_elapsed":125868,"internal_node_id":"0.0-20.0"},{"src":["ce/019784_ce.png","gl/019784_gl.png","ours/019784_ours.png"],"rank_data":[2,1,0],"rank_result":["ours/019784_ours.png","gl/019784_gl.png","ce/019784_ce.png"],"rt":4124,"trial_type":"image-rank","trial_index":21,"time_elapsed":129993,"internal_node_id":"0.0-21.0"},{"src":["ours/081275_ours.png","gl/081275_gl.png","ce/081275_ce.png"],"rank_data":[1,2,0],"rank_result":["ce/081275_ce.png","ours/081275_ours.png","gl/081275_gl.png"],"rt":4167,"trial_type":"image-rank","trial_index":22,"time_elapsed":134162,"internal_node_id":"0.0-22.0"},{"src":["ce/098079_ce.png","ours/098079_ours.png","gl/098079_gl.png"],"rank_data":[1,0,2],"rank_result":["ours/098079_ours.png","ce/098079_ce.png","gl/098079_gl.png"],"rt":4954,"trial_type":"image-rank","trial_index":23,"time_elapsed":139118,"internal_node_id":"0.0-23.0"},{"src":["ours/123362_ours.png","gl/123362_gl.png","ce/123362_ce.png"],"rank_data":[0,2,1],"rank_result":["ours/123362_ours.png","ce/123362_ce.png","gl/123362_gl.png"],"rt":3863,"trial_type":"image-rank","trial_index":24,"time_elapsed":142982,"internal_node_id":"0.0-24.0"},{"src":["gl/159343_gl.png","ours/159343_ours.png","ce/159343_ce.png"],"rank_data":[2,0,1],"rank_result":["ours/159343_ours.png","ce/159343_ce.png","gl/159343_gl.png"],"rt":4426,"trial_type":"image-rank","trial_index":25,"time_elapsed":147410,"internal_node_id":"0.0-25.0"},{"src":["gl/171635_gl.png","ours/171635_ours.png","ce/171635_ce.png"],"rank_data":[2,0,1],"rank_result":["ours/171635_ours.png","ce/171635_ce.png","gl/171635_gl.png"],"rt":3617,"trial_type":"image-rank","trial_index":26,"time_elapsed":151028,"internal_node_id":"0.0-26.0"},{"src":["ce/040770_ce.png","gl/040770_gl.png","ours/040770_ours.png"],"rank_data":[1,2,0],"rank_result":["ours/040770_ours.png","ce/040770_ce.png","gl/040770_gl.png"],"rt":5878,"trial_type":"image-rank","trial_index":27,"time_elapsed":156910,"internal_node_id":"0.0-27.0"},{"src":["ce/200741_ce.png","gl/200741_gl.png","ours/200741_ours.png"],"rank_data":[1,2,0],"rank_result":["ours/200741_ours.png","ce/200741_ce.png","gl/200741_gl.png"],"rt":3773,"trial_type":"image-rank","trial_index":28,"time_elapsed":160687,"internal_node_id":"0.0-28.0"},{"src":["gl/042379_gl.png","ours/042379_ours.png","ce/042379_ce.png"],"rank_data":[2,0,1],"rank_result":["ours/042379_ours.png","ce/042379_ce.png","gl/042379_gl.png"],"rt":5334,"trial_type":"image-rank","trial_index":29,"time_elapsed":166022,"internal_node_id":"0.0-29.0"},{"src":["gl/162142_gl.png","ce/162142_ce.png","ours/162142_ours.png"],"rank_data":[2,1,0],"rank_result":["ours/162142_ours.png","ce/162142_ce.png","gl/162142_gl.png"],"rt":4953,"trial_type":"image-rank","trial_index":30,"time_elapsed":170976,"internal_node_id":"0.0-30.0"},{"src":["ce/026428_ce.png","gl/026428_gl.png","ours/026428_ours.png"],"rank_data":[2,1,0],"rank_result":["ours/026428_ours.png","gl/026428_gl.png","ce/026428_ce.png"],"rt":4885,"trial_type":"image-rank","trial_index":31,"time_elapsed":175863,"internal_node_id":"0.0-31.0"},{"src":["gl/157395_gl.png","ce/157395_ce.png","ours/157395_ours.png"],"rank_data":[2,1,0],"rank_result":["ours/157395_ours.png","ce/157395_ce.png","gl/157395_gl.png"],"rt":4657,"trial_type":"image-rank","trial_index":32,"time_elapsed":180523,"internal_node_id":"0.0-32.0"},{"src":["ours/182880_ours.png","ce/182880_ce.png","gl/182880_gl.png"],"rank_data":[0,1,2],"rank_result":["ours/182880_ours.png","ce/182880_ce.png","gl/182880_gl.png"],"rt":5810,"trial_type":"image-rank","trial_index":33,"time_elapsed":186335,"internal_node_id":"0.0-33.0"},{"src":["ce/013311_ce.png","gl/013311_gl.png","ours/013311_ours.png"],"rank_data":[1,2,0],"rank_result":["ours/013311_ours.png","ce/013311_ce.png","gl/013311_gl.png"],"rt":6051,"trial_type":"image-rank","trial_index":34,"time_elapsed":192387,"internal_node_id":"0.0-34.0"},{"src":["ours/006865_ours.png","gl/006865_gl.png","ce/006865_ce.png"],"rank_data":[0,2,1],"rank_result":["ours/006865_ours.png","ce/006865_ce.png","gl/006865_gl.png"],"rt":3472,"trial_type":"image-rank","trial_index":35,"time_elapsed":195859,"internal_node_id":"0.0-35.0"},{"src":["ours/058676_ours.png","gl/058676_gl.png","ce/058676_ce.png"],"rank_data":[0,2,1],"rank_result":["ours/058676_ours.png","ce/058676_ce.png","gl/058676_gl.png"],"rt":3704,"trial_type":"image-rank","trial_index":36,"time_elapsed":199565,"internal_node_id":"0.0-36.0"},{"src":["ours/183434_ours.png","gl/183434_gl.png","ce/183434_ce.png"],"rank_data":[0,1,2],"rank_result":["ours/183434_ours.png","gl/183434_gl.png","ce/183434_ce.png"],"rt":4315,"trial_type":"image-rank","trial_index":37,"time_elapsed":203880,"internal_node_id":"0.0-37.0"},{"src":["ours/087804_ours.png","gl/087804_gl.png","ce/087804_ce.png"],"rank_data":[0,2,1],"rank_result":["ours/087804_ours.png","ce/087804_ce.png","gl/087804_gl.png"],"rt":3349,"trial_type":"image-rank","trial_index":38,"time_elapsed":207231,"internal_node_id":"0.0-38.0"},{"src":["ours/155571_ours.png","ce/155571_ce.png","gl/155571_gl.png"],"rank_data":[0,1,2],"rank_result":["ours/155571_ours.png","ce/155571_ce.png","gl/155571_gl.png"],"rt":3494,"trial_type":"image-rank","trial_index":39,"time_elapsed":210728,"internal_node_id":"0.0-39.0"},{"src":["ce/004671_ce.png","ours/004671_ours.png","gl/004671_gl.png"],"rank_data":[1,0,2],"rank_result":["ours/004671_ours.png","ce/004671_ce.png","gl/004671_gl.png"],"rt":5954,"trial_type":"image-rank","trial_index":40,"time_elapsed":216682,"internal_node_id":"0.0-40.0"},{"src":["gl/024378_gl.png","ce/024378_ce.png","ours/024378_ours.png"],"rank_data":[2,1,0],"rank_result":["ours/024378_ours.png","ce/024378_ce.png","gl/024378_gl.png"],"rt":4686,"trial_type":"image-rank","trial_index":41,"time_elapsed":221370,"internal_node_id":"0.0-41.0"},{"src":["ce/104852_ce.png","gl/104852_gl.png","ours/104852_ours.png"],"rank_data":[1,2,0],"rank_result":["ours/104852_ours.png","ce/104852_ce.png","gl/104852_gl.png"],"rt":4458,"trial_type":"image-rank","trial_index":42,"time_elapsed":225829,"internal_node_id":"0.0-42.0"},{"src":["ce/119852_ce.png","ours/119852_ours.png","gl/119852_gl.png"],"rank_data":[2,0,1],"rank_result":["ours/119852_ours.png","gl/119852_gl.png","ce/119852_ce.png"],"rt":5198,"trial_type":"image-rank","trial_index":43,"time_elapsed":231028,"internal_node_id":"0.0-43.0"},{"src":["ce/174392_ce.png","gl/174392_gl.png","ours/174392_ours.png"],"rank_data":[2,1,0],"rank_result":["ours/174392_ours.png","gl/174392_gl.png","ce/174392_ce.png"],"rt":5738,"trial_type":"image-rank","trial_index":44,"time_elapsed":236767,"internal_node_id":"0.0-44.0"},{"src":["ce/063799_ce.png","ours/063799_ours.png","gl/063799_gl.png"],"rank_data":[1,0,2],"rank_result":["ours/063799_ours.png","ce/063799_ce.png","gl/063799_gl.png"],"rt":4554,"trial_type":"image-rank","trial_index":45,"time_elapsed":241324,"internal_node_id":"0.0-45.0"},{"src":["ce/035419_ce.png","gl/035419_gl.png","ours/035419_ours.png"],"rank_data":[1,2,0],"rank_result":["ours/035419_ours.png","ce/035419_ce.png","gl/035419_gl.png"],"rt":5849,"trial_type":"image-rank","trial_index":46,"time_elapsed":247175,"internal_node_id":"0.0-46.0"},{"src":["ours/153211_ours.png","gl/153211_gl.png","ce/153211_ce.png"],"rank_data":[0,2,1],"rank_result":["ours/153211_ours.png","ce/153211_ce.png","gl/153211_gl.png"],"rt":4697,"trial_type":"image-rank","trial_index":47,"time_elapsed":251874,"internal_node_id":"0.0-47.0"},{"src":["gl/112760_gl.png","ours/112760_ours.png","ce/112760_ce.png"],"rank_data":[1,0,2],"rank_result":["ours/112760_ours.png","gl/112760_gl.png","ce/112760_ce.png"],"rt":4198,"trial_type":"image-rank","trial_index":48,"time_elapsed":256073,"internal_node_id":"0.0-48.0"},{"src":["gl/023747_gl.png","ce/023747_ce.png","ours/023747_ours.png"],"rank_data":[2,1,0],"rank_result":["ours/023747_ours.png","ce/023747_ce.png","gl/023747_gl.png"],"rt":5769,"trial_type":"image-rank","trial_index":49,"time_elapsed":261846,"internal_node_id":"0.0-49.0"},{"src":["ours/004286_ours.png","ce/004286_ce.png","gl/004286_gl.png"],"rank_data":[0,2,1],"rank_result":["ours/004286_ours.png","gl/004286_gl.png","ce/004286_ce.png"],"rt":4800,"trial_type":"image-rank","trial_index":50,"time_elapsed":266648,"internal_node_id":"0.0-50.0"},{"src":["ours/105536_ours.png","gl/105536_gl.png","ce/105536_ce.png"],"rank_data":[0,2,1],"rank_result":["ours/105536_ours.png","ce/105536_ce.png","gl/105536_gl.png"],"rt":4145,"trial_type":"image-rank","trial_index":51,"time_elapsed":270794,"internal_node_id":"0.0-51.0"},{"src":["ours/125309_ours.png","ce/125309_ce.png","gl/125309_gl.png"],"rank_data":[0,1,2],"rank_result":["ours/125309_ours.png","ce/125309_ce.png","gl/125309_gl.png"],"rt":3414,"trial_type":"image-rank","trial_index":52,"time_elapsed":274209,"internal_node_id":"0.0-52.0"},{"src":["ours/158500_ours.png","gl/158500_gl.png","ce/158500_ce.png"],"rank_data":[0,2,1],"rank_result":["ours/158500_ours.png","ce/158500_ce.png","gl/158500_gl.png"],"rt":2844,"trial_type":"image-rank","trial_index":53,"time_elapsed":277054,"internal_node_id":"0.0-53.0"},{"src":["gl/039623_gl.png","ce/039623_ce.png","ours/039623_ours.png"],"rank_data":[2,1,0],"rank_result":["ours/039623_ours.png","ce/039623_ce.png","gl/039623_gl.png"],"rt":3230,"trial_type":"image-rank","trial_index":54,"time_elapsed":280286,"internal_node_id":"0.0-54.0"},{"src":["ours/046371_ours.png","ce/046371_ce.png","gl/046371_gl.png"],"rank_data":[0,2,1],"rank_result":["ours/046371_ours.png","gl/046371_gl.png","ce/046371_ce.png"],"rt":3814,"trial_type":"image-rank","trial_index":55,"time_elapsed":284103,"internal_node_id":"0.0-55.0"},{"src":["ce/081909_ce.png","ours/081909_ours.png","gl/081909_gl.png"],"rank_data":[1,0,2],"rank_result":["ours/081909_ours.png","ce/081909_ce.png","gl/081909_gl.png"],"rt":11108,"trial_type":"image-rank","trial_index":56,"time_elapsed":295213,"internal_node_id":"0.0-56.0"},{"src":["ours/027107_ours.png","ce/027107_ce.png","gl/027107_gl.png"],"rank_data":[1,0,2],"rank_result":["ce/027107_ce.png","ours/027107_ours.png","gl/027107_gl.png"],"rt":3878,"trial_type":"image-rank","trial_index":57,"time_elapsed":299092,"internal_node_id":"0.0-57.0"},{"src":["ce/085986_ce.png","gl/085986_gl.png","ours/085986_ours.png"],"rank_data":[1,0,2],"rank_result":["gl/085986_gl.png","ce/085986_ce.png","ours/085986_ours.png"],"rt":5432,"trial_type":"image-rank","trial_index":58,"time_elapsed":304526,"internal_node_id":"0.0-58.0"},{"src":["gl/092904_gl.png","ce/092904_ce.png","ours/092904_ours.png"],"rank_data":[1,2,0],"rank_result":["ours/092904_ours.png","gl/092904_gl.png","ce/092904_ce.png"],"rt":5870,"trial_type":"image-rank","trial_index":59,"time_elapsed":310399,"internal_node_id":"0.0-59.0"},{"src":["gl/007840_gl.png","ours/007840_ours.png","ce/007840_ce.png"],"rank_data":[2,0,1],"rank_result":["ours/007840_ours.png","ce/007840_ce.png","gl/007840_gl.png"],"rt":3906,"trial_type":"image-rank","trial_index":60,"time_elapsed":314308,"internal_node_id":"0.0-60.0"},{"src":["gl/028665_gl.png","ce/028665_ce.png","ours/028665_ours.png"],"rank_data":[1,2,0],"rank_result":["ours/028665_ours.png","gl/028665_gl.png","ce/028665_ce.png"],"rt":5020,"trial_type":"image-rank","trial_index":61,"time_elapsed":319329,"internal_node_id":"0.0-61.0"},{"src":["ce/103941_ce.png","ours/103941_ours.png","gl/103941_gl.png"],"rank_data":[2,0,1],"rank_result":["ours/103941_ours.png","gl/103941_gl.png","ce/103941_ce.png"],"rt":3533,"trial_type":"image-rank","trial_index":62,"time_elapsed":322863,"internal_node_id":"0.0-62.0"},{"src":["ours/054295_ours.png","gl/054295_gl.png","ce/054295_ce.png"],"rank_data":[0,1,2],"rank_result":["ours/054295_ours.png","gl/054295_gl.png","ce/054295_ce.png"],"rt":4850,"trial_type":"image-rank","trial_index":63,"time_elapsed":327714,"internal_node_id":"0.0-63.0"},{"src":["gl/010636_gl.png","ce/010636_ce.png","ours/010636_ours.png"],"rank_data":[1,2,0],"rank_result":["ours/010636_ours.png","gl/010636_gl.png","ce/010636_ce.png"],"rt":5781,"trial_type":"image-rank","trial_index":64,"time_elapsed":333496,"internal_node_id":"0.0-64.0"},{"src":["ce/047099_ce.png","ours/047099_ours.png","gl/047099_gl.png"],"rank_data":[1,0,2],"rank_result":["ours/047099_ours.png","ce/047099_ce.png","gl/047099_gl.png"],"rt":4162,"trial_type":"image-rank","trial_index":65,"time_elapsed":337660,"internal_node_id":"0.0-65.0"},{"src":["ours/029992_ours.png","gl/029992_gl.png","ce/029992_ce.png"],"rank_data":[0,2,1],"rank_result":["ours/029992_ours.png","ce/029992_ce.png","gl/029992_gl.png"],"rt":4859,"trial_type":"image-rank","trial_index":66,"time_elapsed":342521,"internal_node_id":"0.0-66.0"},{"src":["ce/003026_ce.png","ours/003026_ours.png","gl/003026_gl.png"],"rank_data":[1,0,2],"rank_result":["ours/003026_ours.png","ce/003026_ce.png","gl/003026_gl.png"],"rt":7253,"trial_type":"image-rank","trial_index":67,"time_elapsed":349776,"internal_node_id":"0.0-67.0"},{"src":["ours/102098_ours.png","gl/102098_gl.png","ce/102098_ce.png"],"rank_data":[0,2,1],"rank_result":["ours/102098_ours.png","ce/102098_ce.png","gl/102098_gl.png"],"rt":6029,"trial_type":"image-rank","trial_index":68,"time_elapsed":355806,"internal_node_id":"0.0-68.0"},{"src":["ce/076780_ce.png","ours/076780_ours.png","gl/076780_gl.png"],"rank_data":[1,0,2],"rank_result":["ours/076780_ours.png","ce/076780_ce.png","gl/076780_gl.png"],"rt":5462,"trial_type":"image-rank","trial_index":69,"time_elapsed":361272,"internal_node_id":"0.0-69.0"},{"src":["gl/099445_gl.png","ce/099445_ce.png","ours/099445_ours.png"],"rank_data":[2,1,0],"rank_result":["ours/099445_ours.png","ce/099445_ce.png","gl/099445_gl.png"],"rt":6210,"trial_type":"image-rank","trial_index":70,"time_elapsed":367484,"internal_node_id":"0.0-70.0"},{"src":["gl/044769_gl.png","ours/044769_ours.png","ce/044769_ce.png"],"rank_data":[2,1,0],"rank_result":["ce/044769_ce.png","ours/044769_ours.png","gl/044769_gl.png"],"rt":7244,"trial_type":"image-rank","trial_index":71,"time_elapsed":374731,"internal_node_id":"0.0-71.0"},{"src":["gl/007529_gl.png","ce/007529_ce.png","ours/007529_ours.png"],"rank_data":[1,2,0],"rank_result":["ours/007529_ours.png","gl/007529_gl.png","ce/007529_ce.png"],"rt":5195,"trial_type":"image-rank","trial_index":72,"time_elapsed":379928,"internal_node_id":"0.0-72.0"},{"src":["gl/051768_gl.png","ce/051768_ce.png","ours/051768_ours.png"],"rank_data":[1,2,0],"rank_result":["ours/051768_ours.png","gl/051768_gl.png","ce/051768_ce.png"],"rt":3976,"trial_type":"image-rank","trial_index":73,"time_elapsed":383906,"internal_node_id":"0.0-73.0"},{"src":["gl/166699_gl.png","ce/166699_ce.png","ours/166699_ours.png"],"rank_data":[2,1,0],"rank_result":["ours/166699_ours.png","ce/166699_ce.png","gl/166699_gl.png"],"rt":3907,"trial_type":"image-rank","trial_index":74,"time_elapsed":387814,"internal_node_id":"0.0-74.0"},{"src":["ours/042096_ours.png","ce/042096_ce.png","gl/042096_gl.png"],"rank_data":[0,1,2],"rank_result":["ours/042096_ours.png","ce/042096_ce.png","gl/042096_gl.png"],"rt":6102,"trial_type":"image-rank","trial_index":75,"time_elapsed":393918,"internal_node_id":"0.0-75.0"},{"src":["ours/101131_ours.png","ce/101131_ce.png","gl/101131_gl.png"],"rank_data":[0,2,1],"rank_result":["ours/101131_ours.png","gl/101131_gl.png","ce/101131_ce.png"],"rt":3291,"trial_type":"image-rank","trial_index":76,"time_elapsed":397210,"internal_node_id":"0.0-76.0"},{"src":["ce/196513_ce.png","ours/196513_ours.png","gl/196513_gl.png"],"rank_data":[1,0,2],"rank_result":["ours/196513_ours.png","ce/196513_ce.png","gl/196513_gl.png"],"rt":4571,"trial_type":"image-rank","trial_index":77,"time_elapsed":401783,"internal_node_id":"0.0-77.0"},{"src":["ce/122815_ce.png","gl/122815_gl.png","ours/122815_ours.png"],"rank_data":[1,2,0],"rank_result":["ours/122815_ours.png","ce/122815_ce.png","gl/122815_gl.png"],"rt":4753,"trial_type":"image-rank","trial_index":78,"time_elapsed":406536,"internal_node_id":"0.0-78.0"},{"src":["ce/011657_ce.png","gl/011657_gl.png","ours/011657_ours.png"],"rank_data":[1,2,0],"rank_result":["ours/011657_ours.png","ce/011657_ce.png","gl/011657_gl.png"],"rt":5460,"trial_type":"image-rank","trial_index":79,"time_elapsed":411998,"internal_node_id":"0.0-79.0"},{"src":["gl/164398_gl.png","ce/164398_ce.png","ours/164398_ours.png"],"rank_data":[1,2,0],"rank_result":["ours/164398_ours.png","gl/164398_gl.png","ce/164398_ce.png"],"rt":3952,"trial_type":"image-rank","trial_index":80,"time_elapsed":415951,"internal_node_id":"0.0-80.0"},{"src":["ce/029959_ce.png","gl/029959_gl.png","ours/029959_ours.png"],"rank_data":[1,2,0],"rank_result":["ours/029959_ours.png","ce/029959_ce.png","gl/029959_gl.png"],"rt":7569,"trial_type":"image-rank","trial_index":81,"time_elapsed":423522,"internal_node_id":"0.0-81.0"},{"src":["gl/153578_gl.png","ce/153578_ce.png","ours/153578_ours.png"],"rank_data":[1,2,0],"rank_result":["ours/153578_ours.png","gl/153578_gl.png","ce/153578_ce.png"],"rt":6067,"trial_type":"image-rank","trial_index":82,"time_elapsed":429590,"internal_node_id":"0.0-82.0"},{"src":["ce/196754_ce.png","ours/196754_ours.png","gl/196754_gl.png"],"rank_data":[1,0,2],"rank_result":["ours/196754_ours.png","ce/196754_ce.png","gl/196754_gl.png"],"rt":3788,"trial_type":"image-rank","trial_index":83,"time_elapsed":433382,"internal_node_id":"0.0-83.0"},{"src":["ce/041353_ce.png","ours/041353_ours.png","gl/041353_gl.png"],"rank_data":[0,1,2],"rank_result":["ce/041353_ce.png","ours/041353_ours.png","gl/041353_gl.png"],"rt":8338,"trial_type":"image-rank","trial_index":84,"time_elapsed":441723,"internal_node_id":"0.0-84.0"},{"src":["gl/037466_gl.png","ce/037466_ce.png","ours/037466_ours.png"],"rank_data":[2,1,0],"rank_result":["ours/037466_ours.png","ce/037466_ce.png","gl/037466_gl.png"],"rt":4692,"trial_type":"image-rank","trial_index":85,"time_elapsed":446417,"internal_node_id":"0.0-85.0"},{"src":["gl/084086_gl.png","ours/084086_ours.png","ce/084086_ce.png"],"rank_data":[2,0,1],"rank_result":["ours/084086_ours.png","ce/084086_ce.png","gl/084086_gl.png"],"rt":6270,"trial_type":"image-rank","trial_index":86,"time_elapsed":452689,"internal_node_id":"0.0-86.0"},{"src":["ce/044704_ce.png","ours/044704_ours.png","gl/044704_gl.png"],"rank_data":[1,0,2],"rank_result":["ours/044704_ours.png","ce/044704_ce.png","gl/044704_gl.png"],"rt":5783,"trial_type":"image-rank","trial_index":87,"time_elapsed":458472,"internal_node_id":"0.0-87.0"},{"src":["gl/140635_gl.png","ours/140635_ours.png","ce/140635_ce.png"],"rank_data":[1,0,2],"rank_result":["ours/140635_ours.png","gl/140635_gl.png","ce/140635_ce.png"],"rt":4049,"trial_type":"image-rank","trial_index":88,"time_elapsed":462523,"internal_node_id":"0.0-88.0"},{"src":["gl/090504_gl.png","ours/090504_ours.png","ce/090504_ce.png"],"rank_data":[2,0,1],"rank_result":["ours/090504_ours.png","ce/090504_ce.png","gl/090504_gl.png"],"rt":5793,"trial_type":"image-rank","trial_index":89,"time_elapsed":468317,"internal_node_id":"0.0-89.0"},{"src":["ours/024533_ours.png","ce/024533_ce.png","gl/024533_gl.png"],"rank_data":[0,1,2],"rank_result":["ours/024533_ours.png","ce/024533_ce.png","gl/024533_gl.png"],"rt":4741,"trial_type":"image-rank","trial_index":90,"time_elapsed":473058,"internal_node_id":"0.0-90.0"},{"src":["ce/009850_ce.png","ours/009850_ours.png","gl/009850_gl.png"],"rank_data":[2,0,1],"rank_result":["ours/009850_ours.png","gl/009850_gl.png","ce/009850_ce.png"],"rt":3718,"trial_type":"image-rank","trial_index":91,"time_elapsed":476778,"internal_node_id":"0.0-91.0"},{"src":["ours/054904_ours.png","gl/054904_gl.png","ce/054904_ce.png"],"rank_data":[0,1,2],"rank_result":["ours/054904_ours.png","gl/054904_gl.png","ce/054904_ce.png"],"rt":5319,"trial_type":"image-rank","trial_index":92,"time_elapsed":482098,"internal_node_id":"0.0-92.0"},{"src":["ce/007359_ce.png","ours/007359_ours.png","gl/007359_gl.png"],"rank_data":[1,0,2],"rank_result":["ours/007359_ours.png","ce/007359_ce.png","gl/007359_gl.png"],"rt":4481,"trial_type":"image-rank","trial_index":93,"time_elapsed":486582,"internal_node_id":"0.0-93.0"},{"src":["ce/037720_ce.png","gl/037720_gl.png","ours/037720_ours.png"],"rank_data":[2,1,0],"rank_result":["ours/037720_ours.png","gl/037720_gl.png","ce/037720_ce.png"],"rt":5526,"trial_type":"image-rank","trial_index":94,"time_elapsed":492111,"internal_node_id":"0.0-94.0"},{"src":["ours/171713_ours.png","gl/171713_gl.png","ce/171713_ce.png"],"rank_data":[0,2,1],"rank_result":["ours/171713_ours.png","ce/171713_ce.png","gl/171713_gl.png"],"rt":3603,"trial_type":"image-rank","trial_index":95,"time_elapsed":495718,"internal_node_id":"0.0-95.0"},{"src":["ours/173707_ours.png","ce/173707_ce.png","gl/173707_gl.png"],"rank_data":[0,1,2],"rank_result":["ours/173707_ours.png","ce/173707_ce.png","gl/173707_gl.png"],"rt":4649,"trial_type":"image-rank","trial_index":96,"time_elapsed":500369,"internal_node_id":"0.0-96.0"},{"src":["gl/066323_gl.png","ce/066323_ce.png","ours/066323_ours.png"],"rank_data":[2,1,0],"rank_result":["ours/066323_ours.png","ce/066323_ce.png","gl/066323_gl.png"],"rt":3454,"trial_type":"image-rank","trial_index":97,"time_elapsed":503825,"internal_node_id":"0.0-97.0"},{"src":["ce/176792_ce.png","ours/176792_ours.png","gl/176792_gl.png"],"rank_data":[1,0,2],"rank_result":["ours/176792_ours.png","ce/176792_ce.png","gl/176792_gl.png"],"rt":6213,"trial_type":"image-rank","trial_index":98,"time_elapsed":510039,"internal_node_id":"0.0-98.0"},{"src":["ce/080141_ce.png","ours/080141_ours.png","gl/080141_gl.png"],"rank_data":[2,0,1],"rank_result":["ours/080141_ours.png","gl/080141_gl.png","ce/080141_ce.png"],"rt":3041,"trial_type":"image-rank","trial_index":99,"time_elapsed":513081,"internal_node_id":"0.0-99.0"},{"src":["ce/016894_ce.png","ours/016894_ours.png","gl/016894_gl.png"],"rank_data":[2,0,1],"rank_result":["ours/016894_ours.png","gl/016894_gl.png","ce/016894_ce.png"],"rt":4912,"trial_type":"image-rank","trial_index":100,"time_elapsed":517994,"internal_node_id":"0.0-100.0"},{"src":["gl/196455_gl.png","ce/196455_ce.png","ours/196455_ours.png"],"rank_data":[2,1,0],"rank_result":["ours/196455_ours.png","ce/196455_ce.png","gl/196455_gl.png"],"rt":5905,"trial_type":"image-rank","trial_index":101,"time_elapsed":523900,"internal_node_id":"0.0-101.0"},{"src":["ce/095358_ce.png","ours/095358_ours.png","gl/095358_gl.png"],"rank_data":[2,0,1],"rank_result":["ours/095358_ours.png","gl/095358_gl.png","ce/095358_ce.png"],"rt":4170,"trial_type":"image-rank","trial_index":102,"time_elapsed":528071,"internal_node_id":"0.0-102.0"}]