[{"rt":4648,"stimulus":"Welcome to the experiment. Press any key to begin.","key_press":13,"trial_type":"html-keyboard-response","trial_index":0,"time_elapsed":4651,"internal_node_id":"0.0-0.0"},{"rt":2172,"stimulus":"<p>In this experiment, three images of people will appear in the center of the screen.</p><p>Your task is to rank these images based on how <strong>real</strong> you think they are.<p>The ranking level is between 1 to 3, with <strong>1</strong> representing the most real one and <strong>3</strong> the fakest one.</p><p>The time to rank is not limited. When you finish ranking, click the <strong>Continue</strong> button to continue.</p>","key_press":13,"trial_type":"html-keyboard-response","trial_index":1,"time_elapsed":6826,"internal_node_id":"0.0-1.0"},{"rt":null,"stimulus":"<div style=\"font-size:60px;\"></div>","key_press":null,"label":"fixation","trial_type":"html-keyboard-response","trial_index":2,"time_elapsed":7831,"internal_node_id":"0.0-2.0"},{"src":["ce/101131_ce.png","gl/101131_gl.png","ours/101131_ours.png"],"rank_data":[1,2,0],"rank_result":["ours/101131_ours.png","ce/101131_ce.png","gl/101131_gl.png"],"rt":8584,"trial_type":"image-rank","trial_index":3,"time_elapsed":16417,"internal_node_id":"0.0-3.0"},{"src":["ce/151937_ce.png","gl/151937_gl.png","ours/151937_ours.png"],"rank_data":[2,1,0],"rank_result":["ours/151937_ours.png","gl/151937_gl.png","ce/151937_ce.png"],"rt":5116,"trial_type":"image-rank","trial_index":4,"time_elapsed":21535,"internal_node_id":"0.0-4.0"},{"src":["gl/089033_gl.png","ce/089033_ce.png","ours/089033_ours.png"],"rank_data":[2,1,0],"rank_result":["ours/089033_ours.png","ce/089033_ce.png","gl/089033_gl.png"],"rt":4882,"trial_type":"image-rank","trial_index":5,"time_elapsed":26419,"internal_node_id":"0.0-5.0"},{"src":["ce/119120_ce.png","ours/119120_ours.png","gl/119120_gl.png"],"rank_data":[2,0,1],"rank_result":["ours/119120_ours.png","gl/119120_gl.png","ce/119120_ce.png"],"rt":4905,"trial_type":"image-rank","trial_index":6,"time_elapsed":31326,"internal_node_id":"0.0-6.0"},{"src":["gl/136900_gl.png","ce/136900_ce.png","ours/136900_ours.png"],"rank_data":[0,2,1],"rank_result":["gl/136900_gl.png","ours/136900_ours.png","ce/136900_ce.png"],"rt":8688,"trial_type":"image-rank","trial_index":7,"time_elapsed":40015,"internal_node_id":"0.0-7.0"},{"src":["ce/172598_ce.png","gl/172598_gl.png","ours/172598_ours.png"],"rank_data":[1,2,0],"rank_result":["ours/172598_ours.png","ce/172598_ce.png","gl/172598_gl.png"],"rt":4170,"trial_type":"image-rank","trial_index":8,"time_elapsed":44186,"internal_node_id":"0.0-8.0"},{"src":["ce/029079_ce.png","ours/029079_ours.png","gl/029079_gl.png"],"rank_data":[1,0,2],"rank_result":["ours/029079_ours.png","ce/029079_ce.png","gl/029079_gl.png"],"rt":31398,"trial_type":"image-rank","trial_index":9,"time_elapsed":75586,"internal_node_id":"0.0-9.0"},{"src":["ce/198959_ce.png","ours/198959_ours.png","gl/198959_gl.png"],"rank_data":[1,0,2],"rank_result":["ours/198959_ours.png","ce/198959_ce.png","gl/198959_gl.png"],"rt":9347,"trial_type":"image-rank","trial_index":10,"time_elapsed":84936,"internal_node_id":"0.0-10.0"},{"src":["ours/046081_ours.png","ce/046081_ce.png","gl/046081_gl.png"],"rank_data":[0,1,2],"rank_result":["ours/046081_ours.png","ce/046081_ce.png","gl/046081_gl.png"],"rt":5302,"trial_type":"image-rank","trial_index":11,"time_elapsed":90241,"internal_node_id":"0.0-11.0"},{"src":["gl/032476_gl.png","ours/032476_ours.png","ce/032476_ce.png"],"rank_data":[2,1,0],"rank_result":["ce/032476_ce.png","ours/032476_ours.png","gl/032476_gl.png"],"rt":7154,"trial_type":"image-rank","trial_index":12,"time_elapsed":97396,"internal_node_id":"0.0-12.0"},{"src":["ours/176555_ours.png","gl/176555_gl.png","ce/176555_ce.png"],"rank_data":[0,2,1],"rank_result":["ours/176555_ours.png","ce/176555_ce.png","gl/176555_gl.png"],"rt":10473,"trial_type":"image-rank","trial_index":13,"time_elapsed":107870,"internal_node_id":"0.0-13.0"},{"src":["gl/187642_gl.png","ce/187642_ce.png","ours/187642_ours.png"],"rank_data":[1,2,0],"rank_result":["ours/187642_ours.png","gl/187642_gl.png","ce/187642_ce.png"],"rt":4441,"trial_type":"image-rank","trial_index":14,"time_elapsed":112312,"internal_node_id":"0.0-14.0"},{"src":["ours/003985_ours.png","gl/003985_gl.png","ce/003985_ce.png"],"rank_data":[0,2,1],"rank_result":["ours/003985_ours.png","ce/003985_ce.png","gl/003985_gl.png"],"rt":5341,"trial_type":"image-rank","trial_index":15,"time_elapsed":117655,"internal_node_id":"0.0-15.0"},{"src":["ours/001835_ours.png","gl/001835_gl.png","ce/001835_ce.png"],"rank_data":[0,2,1],"rank_result":["ours/001835_ours.png","ce/001835_ce.png","gl/001835_gl.png"],"rt":6035,"trial_type":"image-rank","trial_index":16,"time_elapsed":123691,"internal_node_id":"0.0-16.0"},{"src":["gl/102618_gl.png","ours/102618_ours.png","ce/102618_ce.png"],"rank_data":[2,0,1],"rank_result":["ours/102618_ours.png","ce/102618_ce.png","gl/102618_gl.png"],"rt":5587,"trial_type":"image-rank","trial_index":17,"time_elapsed":129279,"internal_node_id":"0.0-17.0"},{"src":["ce/156940_ce.png","gl/156940_gl.png","ours/156940_ours.png"],"rank_data":[2,1,0],"rank_result":["ours/156940_ours.png","gl/156940_gl.png","ce/156940_ce.png"],"rt":5382,"trial_type":"image-rank","trial_index":18,"time_elapsed":134664,"internal_node_id":"0.0-18.0"},{"src":["ce/053214_ce.png","ours/053214_ours.png","gl/053214_gl.png"],"rank_data":[2,0,1],"rank_result":["ours/053214_ours.png","gl/053214_gl.png","ce/053214_ce.png"],"rt":7944,"trial_type":"image-rank","trial_index":19,"time_elapsed":142611,"internal_node_id":"0.0-19.0"},{"src":["gl/022383_gl.png","ce/022383_ce.png","ours/022383_ours.png"],"rank_data":[2,1,0],"rank_result":["ours/022383_ours.png","ce/022383_ce.png","gl/022383_gl.png"],"rt":4618,"trial_type":"image-rank","trial_index":20,"time_elapsed":147231,"internal_node_id":"0.0-20.0"},{"src":["ce/085777_ce.png","ours/085777_ours.png","gl/085777_gl.png"],"rank_data":[1,0,2],"rank_result":["ours/085777_ours.png","ce/085777_ce.png","gl/085777_gl.png"],"rt":5556,"trial_type":"image-rank","trial_index":21,"time_elapsed":152789,"internal_node_id":"0.0-21.0"},{"src":["ours/029446_ours.png","gl/029446_gl.png","ce/029446_ce.png"],"rank_data":[0,2,1],"rank_result":["ours/029446_ours.png","ce/029446_ce.png","gl/029446_gl.png"],"rt":5623,"trial_type":"image-rank","trial_index":22,"time_elapsed":158413,"internal_node_id":"0.0-22.0"},{"src":["ours/071772_ours.png","ce/071772_ce.png","gl/071772_gl.png"],"rank_data":[0,2,1],"rank_result":["ours/071772_ours.png","gl/071772_gl.png","ce/071772_ce.png"],"rt":6378,"trial_type":"image-rank","trial_index":23,"time_elapsed":164792,"internal_node_id":"0.0-23.0"},{"src":["gl/037466_gl.png","ce/037466_ce.png","ours/037466_ours.png"],"rank_data":[2,1,0],"rank_result":["ours/037466_ours.png","ce/037466_ce.png","gl/037466_gl.png"],"rt":13221,"trial_type":"image-rank","trial_index":24,"time_elapsed":178015,"internal_node_id":"0.0-24.0"},{"src":["ours/196059_ours.png","gl/196059_gl.png","ce/196059_ce.png"],"rank_data":[0,2,1],"rank_result":["ours/196059_ours.png","ce/196059_ce.png","gl/196059_gl.png"],"rt":7450,"trial_type":"image-rank","trial_index":25,"time_elapsed":185465,"internal_node_id":"0.0-25.0"},{"src":["ce/070276_ce.png","ours/070276_ours.png","gl/070276_gl.png"],"rank_data":[2,0,1],"rank_result":["ours/070276_ours.png","gl/070276_gl.png","ce/070276_ce.png"],"rt":6711,"trial_type":"image-rank","trial_index":26,"time_elapsed":192178,"internal_node_id":"0.0-26.0"},{"src":["ce/189850_ce.png","ours/189850_ours.png","gl/189850_gl.png"],"rank_data":[0,1,2],"rank_result":["ce/189850_ce.png","ours/189850_ours.png","gl/189850_gl.png"],"rt":7647,"trial_type":"image-rank","trial_index":27,"time_elapsed":199827,"internal_node_id":"0.0-27.0"},{"src":["gl/158222_gl.png","ours/158222_ours.png","ce/158222_ce.png"],"rank_data":[1,0,2],"rank_result":["ours/158222_ours.png","gl/158222_gl.png","ce/158222_ce.png"],"rt":6753,"trial_type":"image-rank","trial_index":28,"time_elapsed":206581,"internal_node_id":"0.0-28.0"},{"src":["ce/122959_ce.png","gl/122959_gl.png","ours/122959_ours.png"],"rank_data":[1,2,0],"rank_result":["ours/122959_ours.png","ce/122959_ce.png","gl/122959_gl.png"],"rt":5409,"trial_type":"image-rank","trial_index":29,"time_elapsed":211993,"internal_node_id":"0.0-29.0"},{"src":["ce/016121_ce.png","ours/016121_ours.png","gl/016121_gl.png"],"rank_data":[1,0,2],"rank_result":["ours/016121_ours.png","ce/016121_ce.png","gl/016121_gl.png"],"rt":8251,"trial_type":"image-rank","trial_index":30,"time_elapsed":220244,"internal_node_id":"0.0-30.0"},{"src":["gl/099575_gl.png","ours/099575_ours.png","ce/099575_ce.png"],"rank_data":[1,0,2],"rank_result":["ours/099575_ours.png","gl/099575_gl.png","ce/099575_ce.png"],"rt":5042,"trial_type":"image-rank","trial_index":31,"time_elapsed":225288,"internal_node_id":"0.0-31.0"},{"src":["ours/114392_ours.png","ce/114392_ce.png","gl/114392_gl.png"],"rank_data":[0,1,2],"rank_result":["ours/114392_ours.png","ce/114392_ce.png","gl/114392_gl.png"],"rt":5014,"trial_type":"image-rank","trial_index":32,"time_elapsed":230304,"internal_node_id":"0.0-32.0"},{"src":["ce/048511_ce.png","gl/048511_gl.png","ours/048511_ours.png"],"rank_data":[2,1,0],"rank_result":["ours/048511_ours.png","gl/048511_gl.png","ce/048511_ce.png"],"rt":8997,"trial_type":"image-rank","trial_index":33,"time_elapsed":239303,"internal_node_id":"0.0-33.0"},{"src":["ce/133021_ce.png","gl/133021_gl.png","ours/133021_ours.png"],"rank_data":[2,1,0],"rank_result":["ours/133021_ours.png","gl/133021_gl.png","ce/133021_ce.png"],"rt":4681,"trial_type":"image-rank","trial_index":34,"time_elapsed":243984,"internal_node_id":"0.0-34.0"},{"src":["ce/150952_ce.png","gl/150952_gl.png","ours/150952_ours.png"],"rank_data":[1,2,0],"rank_result":["ours/150952_ours.png","ce/150952_ce.png","gl/150952_gl.png"],"rt":5221,"trial_type":"image-rank","trial_index":35,"time_elapsed":249208,"internal_node_id":"0.0-35.0"},{"src":["ce/041877_ce.png","gl/041877_gl.png","ours/041877_ours.png"],"rank_data":[2,1,0],"rank_result":["ours/041877_ours.png","gl/041877_gl.png","ce/041877_ce.png"],"rt":6540,"trial_type":"image-rank","trial_index":36,"time_elapsed":255751,"internal_node_id":"0.0-36.0"},{"src":["ours/054894_ours.png","ce/054894_ce.png","gl/054894_gl.png"],"rank_data":[0,1,2],"rank_result":["ours/054894_ours.png","ce/054894_ce.png","gl/054894_gl.png"],"rt":10033,"trial_type":"image-rank","trial_index":37,"time_elapsed":265785,"internal_node_id":"0.0-37.0"},{"src":["ours/148073_ours.png","gl/148073_gl.png","ce/148073_ce.png"],"rank_data":[0,1,2],"rank_result":["ours/148073_ours.png","gl/148073_gl.png","ce/148073_ce.png"],"rt":9435,"trial_type":"image-rank","trial_index":38,"time_elapsed":275222,"internal_node_id":"0.0-38.0"},{"src":["gl/180864_gl.png","ce/180864_ce.png","ours/180864_ours.png"],"rank_data":[2,1,0],"rank_result":["ours/180864_ours.png","ce/180864_ce.png","gl/180864_gl.png"],"rt":9294,"trial_type":"image-rank","trial_index":39,"time_elapsed":284518,"internal_node_id":"0.0-39.0"},{"src":["gl/134702_gl.png","ce/134702_ce.png","ours/134702_ours.png"],"rank_data":[2,1,0],"rank_result":["ours/134702_ours.png","ce/134702_ce.png","gl/134702_gl.png"],"rt":8521,"trial_type":"image-rank","trial_index":40,"time_elapsed":293040,"internal_node_id":"0.0-40.0"},{"src":["ce/166925_ce.png","ours/166925_ours.png","gl/166925_gl.png"],"rank_data":[1,0,2],"rank_result":["ours/166925_ours.png","ce/166925_ce.png","gl/166925_gl.png"],"rt":7751,"trial_type":"image-rank","trial_index":41,"time_elapsed":300792,"internal_node_id":"0.0-41.0"},{"src":["gl/160489_gl.png","ce/160489_ce.png","ours/160489_ours.png"],"rank_data":[2,1,0],"rank_result":["ours/160489_ours.png","ce/160489_ce.png","gl/160489_gl.png"],"rt":9431,"trial_type":"image-rank","trial_index":42,"time_elapsed":310224,"internal_node_id":"0.0-42.0"},{"src":["ce/179845_ce.png","gl/179845_gl.png","ours/179845_ours.png"],"rank_data":[1,2,0],"rank_result":["ours/179845_ours.png","ce/179845_ce.png","gl/179845_gl.png"],"rt":4188,"trial_type":"image-rank","trial_index":43,"time_elapsed":314416,"internal_node_id":"0.0-43.0"},{"src":["ce/131194_ce.png","gl/131194_gl.png","ours/131194_ours.png"],"rank_data":[1,2,0],"rank_result":["ours/131194_ours.png","ce/131194_ce.png","gl/131194_gl.png"],"rt":5059,"trial_type":"image-rank","trial_index":44,"time_elapsed":319476,"internal_node_id":"0.0-44.0"},{"src":["ce/072806_ce.png","gl/072806_gl.png","ours/072806_ours.png"],"rank_data":[2,1,0],"rank_result":["ours/072806_ours.png","gl/072806_gl.png","ce/072806_ce.png"],"rt":9032,"trial_type":"image-rank","trial_index":45,"time_elapsed":328510,"internal_node_id":"0.0-45.0"},{"src":["gl/060988_gl.png","ce/060988_ce.png","ours/060988_ours.png"],"rank_data":[2,1,0],"rank_result":["ours/060988_ours.png","ce/060988_ce.png","gl/060988_gl.png"],"rt":4246,"trial_type":"image-rank","trial_index":46,"time_elapsed":332759,"internal_node_id":"0.0-46.0"},{"src":["ce/179135_ce.png","ours/179135_ours.png","gl/179135_gl.png"],"rank_data":[2,0,1],"rank_result":["ours/179135_ours.png","gl/179135_gl.png","ce/179135_ce.png"],"rt":12072,"trial_type":"image-rank","trial_index":47,"time_elapsed":344833,"internal_node_id":"0.0-47.0"},{"src":["ce/002055_ce.png","ours/002055_ours.png","gl/002055_gl.png"],"rank_data":[2,0,1],"rank_result":["ours/002055_ours.png","gl/002055_gl.png","ce/002055_ce.png"],"rt":25098,"trial_type":"image-rank","trial_index":48,"time_elapsed":369932,"internal_node_id":"0.0-48.0"},{"src":["ce/151290_ce.png","ours/151290_ours.png","gl/151290_gl.png"],"rank_data":[1,0,2],"rank_result":["ours/151290_ours.png","ce/151290_ce.png","gl/151290_gl.png"],"rt":12382,"trial_type":"image-rank","trial_index":49,"time_elapsed":382314,"internal_node_id":"0.0-49.0"},{"src":["gl/020625_gl.png","ours/020625_ours.png","ce/020625_ce.png"],"rank_data":[1,0,2],"rank_result":["ours/020625_ours.png","gl/020625_gl.png","ce/020625_ce.png"],"rt":4255,"trial_type":"image-rank","trial_index":50,"time_elapsed":386571,"internal_node_id":"0.0-50.0"},{"src":["ours/072135_ours.png","ce/072135_ce.png","gl/072135_gl.png"],"rank_data":[0,2,1],"rank_result":["ours/072135_ours.png","gl/072135_gl.png","ce/072135_ce.png"],"rt":4182,"trial_type":"image-rank","trial_index":51,"time_elapsed":390755,"internal_node_id":"0.0-51.0"},{"src":["ours/071404_ours.png","gl/071404_gl.png","ce/071404_ce.png"],"rank_data":[0,1,2],"rank_result":["ours/071404_ours.png","gl/071404_gl.png","ce/071404_ce.png"],"rt":4968,"trial_type":"image-rank","trial_index":52,"time_elapsed":395725,"internal_node_id":"0.0-52.0"},{"src":["gl/100259_gl.png","ce/100259_ce.png","ours/100259_ours.png"],"rank_data":[1,2,0],"rank_result":["ours/100259_ours.png","gl/100259_gl.png","ce/100259_ce.png"],"rt":4479,"trial_type":"image-rank","trial_index":53,"time_elapsed":400207,"internal_node_id":"0.0-53.0"},{"src":["gl/062885_gl.png","ce/062885_ce.png","ours/062885_ours.png"],"rank_data":[1,2,0],"rank_result":["ours/062885_ours.png","gl/062885_gl.png","ce/062885_ce.png"],"rt":3051,"trial_type":"image-rank","trial_index":54,"time_elapsed":403260,"internal_node_id":"0.0-54.0"},{"src":["ce/089223_ce.png","ours/089223_ours.png","gl/089223_gl.png"],"rank_data":[1,0,2],"rank_result":["ours/089223_ours.png","ce/089223_ce.png","gl/089223_gl.png"],"rt":5779,"trial_type":"image-rank","trial_index":55,"time_elapsed":409040,"internal_node_id":"0.0-55.0"},{"src":["ce/038879_ce.png","gl/038879_gl.png","ours/038879_ours.png"],"rank_data":[1,2,0],"rank_result":["ours/038879_ours.png","ce/038879_ce.png","gl/038879_gl.png"],"rt":5155,"trial_type":"image-rank","trial_index":56,"time_elapsed":414196,"internal_node_id":"0.0-56.0"},{"src":["ours/019713_ours.png","gl/019713_gl.png","ce/019713_ce.png"],"rank_data":[0,2,1],"rank_result":["ours/019713_ours.png","ce/019713_ce.png","gl/019713_gl.png"],"rt":5680,"trial_type":"image-rank","trial_index":57,"time_elapsed":419878,"internal_node_id":"0.0-57.0"},{"src":["ce/181941_ce.png","ours/181941_ours.png","gl/181941_gl.png"],"rank_data":[1,0,2],"rank_result":["ours/181941_ours.png","ce/181941_ce.png","gl/181941_gl.png"],"rt":10997,"trial_type":"image-rank","trial_index":58,"time_elapsed":430877,"internal_node_id":"0.0-58.0"},{"src":["ours/132129_ours.png","gl/132129_gl.png","ce/132129_ce.png"],"rank_data":[0,2,1],"rank_result":["ours/132129_ours.png","ce/132129_ce.png","gl/132129_gl.png"],"rt":6418,"trial_type":"image-rank","trial_index":59,"time_elapsed":437295,"internal_node_id":"0.0-59.0"},{"src":["ours/187742_ours.png","ce/187742_ce.png","gl/187742_gl.png"],"rank_data":[0,1,2],"rank_result":["ours/187742_ours.png","ce/187742_ce.png","gl/187742_gl.png"],"rt":5081,"trial_type":"image-rank","trial_index":60,"time_elapsed":442377,"internal_node_id":"0.0-60.0"},{"src":["ce/099113_ce.png","ours/099113_ours.png","gl/099113_gl.png"],"rank_data":[0,1,2],"rank_result":["ce/099113_ce.png","ours/099113_ours.png","gl/099113_gl.png"],"rt":6445,"trial_type":"image-rank","trial_index":61,"time_elapsed":448823,"internal_node_id":"0.0-61.0"},{"src":["ce/164398_ce.png","ours/164398_ours.png","gl/164398_gl.png"],"rank_data":[1,0,2],"rank_result":["ours/164398_ours.png","ce/164398_ce.png","gl/164398_gl.png"],"rt":4809,"trial_type":"image-rank","trial_index":62,"time_elapsed":453632,"internal_node_id":"0.0-62.0"},{"src":["ours/123156_ours.png","ce/123156_ce.png","gl/123156_gl.png"],"rank_data":[0,2,1],"rank_result":["ours/123156_ours.png","gl/123156_gl.png","ce/123156_ce.png"],"rt":4902,"trial_type":"image-rank","trial_index":63,"time_elapsed":458537,"internal_node_id":"0.0-63.0"},{"src":["gl/179936_gl.png","ce/179936_ce.png","ours/179936_ours.png"],"rank_data":[2,1,0],"rank_result":["ours/179936_ours.png","ce/179936_ce.png","gl/179936_gl.png"],"rt":4919,"trial_type":"image-rank","trial_index":64,"time_elapsed":463458,"internal_node_id":"0.0-64.0"},{"src":["ce/036233_ce.png","gl/036233_gl.png","ours/036233_ours.png"],"rank_data":[1,2,0],"rank_result":["ours/036233_ours.png","ce/036233_ce.png","gl/036233_gl.png"],"rt":6299,"trial_type":"image-rank","trial_index":65,"time_elapsed":469760,"internal_node_id":"0.0-65.0"},{"src":["gl/126212_gl.png","ce/126212_ce.png","ours/126212_ours.png"],"rank_data":[2,1,0],"rank_result":["ours/126212_ours.png","ce/126212_ce.png","gl/126212_gl.png"],"rt":7277,"trial_type":"image-rank","trial_index":66,"time_elapsed":477038,"internal_node_id":"0.0-66.0"},{"src":["ours/030441_ours.png","gl/030441_gl.png","ce/030441_ce.png"],"rank_data":[0,2,1],"rank_result":["ours/030441_ours.png","ce/030441_ce.png","gl/030441_gl.png"],"rt":6516,"trial_type":"image-rank","trial_index":67,"time_elapsed":483555,"internal_node_id":"0.0-67.0"},{"src":["ours/036916_ours.png","ce/036916_ce.png","gl/036916_gl.png"],"rank_data":[0,1,2],"rank_result":["ours/036916_ours.png","ce/036916_ce.png","gl/036916_gl.png"],"rt":5748,"trial_type":"image-rank","trial_index":68,"time_elapsed":489305,"internal_node_id":"0.0-68.0"},{"src":["ce/029649_ce.png","gl/029649_gl.png","ours/029649_ours.png"],"rank_data":[1,2,0],"rank_result":["ours/029649_ours.png","ce/029649_ce.png","gl/029649_gl.png"],"rt":2787,"trial_type":"image-rank","trial_index":69,"time_elapsed":492093,"internal_node_id":"0.0-69.0"},{"src":["gl/023936_gl.png","ours/023936_ours.png","ce/023936_ce.png"],"rank_data":[2,0,1],"rank_result":["ours/023936_ours.png","ce/023936_ce.png","gl/023936_gl.png"],"rt":3737,"trial_type":"image-rank","trial_index":70,"time_elapsed":495831,"internal_node_id":"0.0-70.0"},{"src":["ours/131356_ours.png","ce/131356_ce.png","gl/131356_gl.png"],"rank_data":[1,2,0],"rank_result":["gl/131356_gl.png","ours/131356_ours.png","ce/131356_ce.png"],"rt":5130,"trial_type":"image-rank","trial_index":71,"time_elapsed":500963,"internal_node_id":"0.0-71.0"},{"src":["gl/041263_gl.png","ce/041263_ce.png","ours/041263_ours.png"],"rank_data":[2,1,0],"rank_result":["ours/041263_ours.png","ce/041263_ce.png","gl/041263_gl.png"],"rt":5337,"trial_type":"image-rank","trial_index":72,"time_elapsed":506300,"internal_node_id":"0.0-72.0"},{"src":["gl/081378_gl.png","ce/081378_ce.png","ours/081378_ours.png"],"rank_data":[1,2,0],"rank_result":["ours/081378_ours.png","gl/081378_gl.png","ce/081378_ce.png"],"rt":3396,"trial_type":"image-rank","trial_index":73,"time_elapsed":509698,"internal_node_id":"0.0-73.0"},{"src":["ce/201835_ce.png","ours/201835_ours.png","gl/201835_gl.png"],"rank_data":[1,0,2],"rank_result":["ours/201835_ours.png","ce/201835_ce.png","gl/201835_gl.png"],"rt":4534,"trial_type":"image-rank","trial_index":74,"time_elapsed":514234,"internal_node_id":"0.0-74.0"},{"src":["ce/043800_ce.png","gl/043800_gl.png","ours/043800_ours.png"],"rank_data":[1,2,0],"rank_result":["ours/043800_ours.png","ce/043800_ce.png","gl/043800_gl.png"],"rt":6954,"trial_type":"image-rank","trial_index":75,"time_elapsed":521191,"internal_node_id":"0.0-75.0"},{"src":["ours/129200_ours.png","ce/129200_ce.png","gl/129200_gl.png"],"rank_data":[0,1,2],"rank_result":["ours/129200_ours.png","ce/129200_ce.png","gl/129200_gl.png"],"rt":5169,"trial_type":"image-rank","trial_index":76,"time_elapsed":526362,"internal_node_id":"0.0-76.0"},{"src":["gl/077112_gl.png","ours/077112_ours.png","ce/077112_ce.png"],"rank_data":[1,0,2],"rank_result":["ours/077112_ours.png","gl/077112_gl.png","ce/077112_ce.png"],"rt":5112,"trial_type":"image-rank","trial_index":77,"time_elapsed":531478,"internal_node_id":"0.0-77.0"},{"src":["gl/083539_gl.png","ce/083539_ce.png","ours/083539_ours.png"],"rank_data":[1,2,0],"rank_result":["ours/083539_ours.png","gl/083539_gl.png","ce/083539_ce.png"],"rt":5985,"trial_type":"image-rank","trial_index":78,"time_elapsed":537466,"internal_node_id":"0.0-78.0"},{"src":["ours/066361_ours.png","gl/066361_gl.png","ce/066361_ce.png"],"rank_data":[0,2,1],"rank_result":["ours/066361_ours.png","ce/066361_ce.png","gl/066361_gl.png"],"rt":4595,"trial_type":"image-rank","trial_index":79,"time_elapsed":542067,"internal_node_id":"0.0-79.0"},{"src":["ours/061920_ours.png","ce/061920_ce.png","gl/061920_gl.png"],"rank_data":[0,1,2],"rank_result":["ours/061920_ours.png","ce/061920_ce.png","gl/061920_gl.png"],"rt":8346,"trial_type":"image-rank","trial_index":80,"time_elapsed":550416,"internal_node_id":"0.0-80.0"},{"src":["gl/078714_gl.png","ours/078714_ours.png","ce/078714_ce.png"],"rank_data":[1,0,2],"rank_result":["ours/078714_ours.png","gl/078714_gl.png","ce/078714_ce.png"],"rt":5145,"trial_type":"image-rank","trial_index":81,"time_elapsed":555562,"internal_node_id":"0.0-81.0"},{"src":["ce/091773_ce.png","gl/091773_gl.png","ours/091773_ours.png"],"rank_data":[2,1,0],"rank_result":["ours/091773_ours.png","gl/091773_gl.png","ce/091773_ce.png"],"rt":13757,"trial_type":"image-rank","trial_index":82,"time_elapsed":569323,"internal_node_id":"0.0-82.0"},{"src":["ce/153591_ce.png","ours/153591_ours.png","gl/153591_gl.png"],"rank_data":[1,0,2],"rank_result":["ours/153591_ours.png","ce/153591_ce.png","gl/153591_gl.png"],"rt":6091,"trial_type":"image-rank","trial_index":83,"time_elapsed":575415,"internal_node_id":"0.0-83.0"},{"src":["ce/046479_ce.png","gl/046479_gl.png","ours/046479_ours.png"],"rank_data":[1,0,2],"rank_result":["gl/046479_gl.png","ce/046479_ce.png","ours/046479_ours.png"],"rt":4462,"trial_type":"image-rank","trial_index":84,"time_elapsed":579878,"internal_node_id":"0.0-84.0"},{"src":["ours/045222_ours.png","gl/045222_gl.png","ce/045222_ce.png"],"rank_data":[0,1,2],"rank_result":["ours/045222_ours.png","gl/045222_gl.png","ce/045222_ce.png"],"rt":4835,"trial_type":"image-rank","trial_index":85,"time_elapsed":584714,"internal_node_id":"0.0-85.0"},{"src":["gl/197978_gl.png","ours/197978_ours.png","ce/197978_ce.png"],"rank_data":[1,0,2],"rank_result":["ours/197978_ours.png","gl/197978_gl.png","ce/197978_ce.png"],"rt":5930,"trial_type":"image-rank","trial_index":86,"time_elapsed":590646,"internal_node_id":"0.0-86.0"},{"src":["ours/030922_ours.png","gl/030922_gl.png","ce/030922_ce.png"],"rank_data":[0,1,2],"rank_result":["ours/030922_ours.png","gl/030922_gl.png","ce/030922_ce.png"],"rt":4229,"trial_type":"image-rank","trial_index":87,"time_elapsed":594879,"internal_node_id":"0.0-87.0"},{"src":["ours/160803_ours.png","ce/160803_ce.png","gl/160803_gl.png"],"rank_data":[0,2,1],"rank_result":["ours/160803_ours.png","gl/160803_gl.png","ce/160803_ce.png"],"rt":3974,"trial_type":"image-rank","trial_index":88,"time_elapsed":598855,"internal_node_id":"0.0-88.0"},{"src":["ce/080348_ce.png","gl/080348_gl.png","ours/080348_ours.png"],"rank_data":[2,0,1],"rank_result":["gl/080348_gl.png","ours/080348_ours.png","ce/080348_ce.png"],"rt":4158,"trial_type":"image-rank","trial_index":89,"time_elapsed":603014,"internal_node_id":"0.0-89.0"},{"src":["ours/099145_ours.png","ce/099145_ce.png","gl/099145_gl.png"],"rank_data":[0,1,2],"rank_result":["ours/099145_ours.png","ce/099145_ce.png","gl/099145_gl.png"],"rt":4520,"trial_type":"image-rank","trial_index":90,"time_elapsed":607536,"internal_node_id":"0.0-90.0"},{"src":["gl/164873_gl.png","ce/164873_ce.png","ours/164873_ours.png"],"rank_data":[1,2,0],"rank_result":["ours/164873_ours.png","gl/164873_gl.png","ce/164873_ce.png"],"rt":5757,"trial_type":"image-rank","trial_index":91,"time_elapsed":613294,"internal_node_id":"0.0-91.0"},{"src":["gl/034020_gl.png","ce/034020_ce.png","ours/034020_ours.png"],"rank_data":[2,1,0],"rank_result":["ours/034020_ours.png","ce/034020_ce.png","gl/034020_gl.png"],"rt":8064,"trial_type":"image-rank","trial_index":92,"time_elapsed":621359,"internal_node_id":"0.0-92.0"},{"src":["gl/142437_gl.png","ce/142437_ce.png","ours/142437_ours.png"],"rank_data":[1,2,0],"rank_result":["ours/142437_ours.png","gl/142437_gl.png","ce/142437_ce.png"],"rt":6739,"trial_type":"image-rank","trial_index":93,"time_elapsed":628099,"internal_node_id":"0.0-93.0"},{"src":["gl/028497_gl.png","ours/028497_ours.png","ce/028497_ce.png"],"rank_data":[2,1,0],"rank_result":["ce/028497_ce.png","ours/028497_ours.png","gl/028497_gl.png"],"rt":4882,"trial_type":"image-rank","trial_index":94,"time_elapsed":632982,"internal_node_id":"0.0-94.0"},{"src":["ce/009858_ce.png","gl/009858_gl.png","ours/009858_ours.png"],"rank_data":[1,2,0],"rank_result":["ours/009858_ours.png","ce/009858_ce.png","gl/009858_gl.png"],"rt":2810,"trial_type":"image-rank","trial_index":95,"time_elapsed":635793,"internal_node_id":"0.0-95.0"},{"src":["ce/119541_ce.png","ours/119541_ours.png","gl/119541_gl.png"],"rank_data":[2,0,1],"rank_result":["ours/119541_ours.png","gl/119541_gl.png","ce/119541_ce.png"],"rt":3933,"trial_type":"image-rank","trial_index":96,"time_elapsed":639729,"internal_node_id":"0.0-96.0"},{"src":["gl/037802_gl.png","ours/037802_ours.png","ce/037802_ce.png"],"rank_data":[2,0,1],"rank_result":["ours/037802_ours.png","ce/037802_ce.png","gl/037802_gl.png"],"rt":4544,"trial_type":"image-rank","trial_index":97,"time_elapsed":644274,"internal_node_id":"0.0-97.0"},{"src":["gl/075046_gl.png","ours/075046_ours.png","ce/075046_ce.png"],"rank_data":[2,0,1],"rank_result":["ours/075046_ours.png","ce/075046_ce.png","gl/075046_gl.png"],"rt":4545,"trial_type":"image-rank","trial_index":98,"time_elapsed":648822,"internal_node_id":"0.0-98.0"},{"src":["ours/110210_ours.png","gl/110210_gl.png","ce/110210_ce.png"],"rank_data":[1,2,0],"rank_result":["ce/110210_ce.png","ours/110210_ours.png","gl/110210_gl.png"],"rt":3594,"trial_type":"image-rank","trial_index":99,"time_elapsed":652417,"internal_node_id":"0.0-99.0"},{"src":["ours/068248_ours.png","gl/068248_gl.png","ce/068248_ce.png"],"rank_data":[0,1,2],"rank_result":["ours/068248_ours.png","gl/068248_gl.png","ce/068248_ce.png"],"rt":4710,"trial_type":"image-rank","trial_index":100,"time_elapsed":657129,"internal_node_id":"0.0-100.0"},{"src":["ours/103867_ours.png","gl/103867_gl.png","ce/103867_ce.png"],"rank_data":[0,2,1],"rank_result":["ours/103867_ours.png","ce/103867_ce.png","gl/103867_gl.png"],"rt":4782,"trial_type":"image-rank","trial_index":101,"time_elapsed":661914,"internal_node_id":"0.0-101.0"},{"src":["ce/031876_ce.png","gl/031876_gl.png","ours/031876_ours.png"],"rank_data":[1,2,0],"rank_result":["ours/031876_ours.png","ce/031876_ce.png","gl/031876_gl.png"],"rt":3279,"trial_type":"image-rank","trial_index":102,"time_elapsed":665196,"internal_node_id":"0.0-102.0"}]