[{"rt":4447,"stimulus":"Welcome to the experiment. Press any key to begin.","key_press":32,"trial_type":"html-keyboard-response","trial_index":0,"time_elapsed":4450,"internal_node_id":"0.0-0.0"},{"rt":2716,"stimulus":"<p>In this experiment, three images of people will appear in the center of the screen.</p><p>Your task is to rank these images based on how <strong>real</strong> you think they are.<p>The ranking level is between 1 to 3, with <strong>1</strong> representing the most real one and <strong>3</strong> the fakest one.</p><p>The time to rank is not limited. When you finish ranking, click the <strong>Continue</strong> button to continue.</p>","key_press":32,"trial_type":"html-keyboard-response","trial_index":1,"time_elapsed":7169,"internal_node_id":"0.0-1.0"},{"rt":null,"stimulus":"<div style=\"font-size:60px;\"></div>","key_press":null,"label":"fixation","trial_type":"html-keyboard-response","trial_index":2,"time_elapsed":8172,"internal_node_id":"0.0-2.0"},{"src":["gl/004612_gl.png","ce/004612_ce.png","ours/004612_ours.png"],"rank_data":[1,2,0],"rank_result":["ours/004612_ours.png","gl/004612_gl.png","ce/004612_ce.png"],"rt":7848,"trial_type":"image-rank","trial_index":3,"time_elapsed":16025,"internal_node_id":"0.0-3.0"},{"src":["ours/110210_ours.png","ce/110210_ce.png","gl/110210_gl.png"],"rank_data":[0,1,2],"rank_result":["ours/110210_ours.png","ce/110210_ce.png","gl/110210_gl.png"],"rt":22560,"trial_type":"image-rank","trial_index":4,"time_elapsed":38587,"internal_node_id":"0.0-4.0"},{"src":["gl/094907_gl.png","ce/094907_ce.png","ours/094907_ours.png"],"rank_data":[1,2,0],"rank_result":["ours/094907_ours.png","gl/094907_gl.png","ce/094907_ce.png"],"rt":8479,"trial_type":"image-rank","trial_index":5,"time_elapsed":47069,"internal_node_id":"0.0-5.0"},{"src":["ce/155670_ce.png","gl/155670_gl.png","ours/155670_ours.png"],"rank_data":[2,1,0],"rank_result":["ours/155670_ours.png","gl/155670_gl.png","ce/155670_ce.png"],"rt":8552,"trial_type":"image-rank","trial_index":6,"time_elapsed":55622,"internal_node_id":"0.0-6.0"},{"src":["gl/117153_gl.png","ce/117153_ce.png","ours/117153_ours.png"],"rank_data":[1,2,0],"rank_result":["ours/117153_ours.png","gl/117153_gl.png","ce/117153_ce.png"],"rt":16504,"trial_type":"image-rank","trial_index":7,"time_elapsed":72127,"internal_node_id":"0.0-7.0"},{"src":["gl/007219_gl.png","ce/007219_ce.png","ours/007219_ours.png"],"rank_data":[2,1,0],"rank_result":["ours/007219_ours.png","ce/007219_ce.png","gl/007219_gl.png"],"rt":6044,"trial_type":"image-rank","trial_index":8,"time_elapsed":78174,"internal_node_id":"0.0-8.0"},{"src":["ours/141992_ours.png","gl/141992_gl.png","ce/141992_ce.png"],"rank_data":[0,2,1],"rank_result":["ours/141992_ours.png","ce/141992_ce.png","gl/141992_gl.png"],"rt":13803,"trial_type":"image-rank","trial_index":9,"time_elapsed":91979,"internal_node_id":"0.0-9.0"},{"src":["ours/042379_ours.png","ce/042379_ce.png","gl/042379_gl.png"],"rank_data":[0,1,2],"rank_result":["ours/042379_ours.png","ce/042379_ce.png","gl/042379_gl.png"],"rt":8289,"trial_type":"image-rank","trial_index":10,"time_elapsed":100270,"internal_node_id":"0.0-10.0"},{"src":["gl/138435_gl.png","ours/138435_ours.png","ce/138435_ce.png"],"rank_data":[2,1,0],"rank_result":["ce/138435_ce.png","ours/138435_ours.png","gl/138435_gl.png"],"rt":7891,"trial_type":"image-rank","trial_index":11,"time_elapsed":108162,"internal_node_id":"0.0-11.0"},{"src":["gl/194301_gl.png","ce/194301_ce.png","ours/194301_ours.png"],"rank_data":[2,0,1],"rank_result":["ce/194301_ce.png","ours/194301_ours.png","gl/194301_gl.png"],"rt":13437,"trial_type":"image-rank","trial_index":12,"time_elapsed":121600,"internal_node_id":"0.0-12.0"},{"src":["ce/126080_ce.png","ours/126080_ours.png","gl/126080_gl.png"],"rank_data":[1,0,2],"rank_result":["ours/126080_ours.png","ce/126080_ce.png","gl/126080_gl.png"],"rt":17868,"trial_type":"image-rank","trial_index":13,"time_elapsed":139468,"internal_node_id":"0.0-13.0"},{"src":["ce/172170_ce.png","gl/172170_gl.png","ours/172170_ours.png"],"rank_data":[2,1,0],"rank_result":["ours/172170_ours.png","gl/172170_gl.png","ce/172170_ce.png"],"rt":13421,"trial_type":"image-rank","trial_index":14,"time_elapsed":152890,"internal_node_id":"0.0-14.0"},{"src":["ce/145107_ce.png","gl/145107_gl.png","ours/145107_ours.png"],"rank_data":[1,2,0],"rank_result":["ours/145107_ours.png","ce/145107_ce.png","gl/145107_gl.png"],"rt":5072,"trial_type":"image-rank","trial_index":15,"time_elapsed":157963,"internal_node_id":"0.0-15.0"},{"src":["ce/035321_ce.png","gl/035321_gl.png","ours/035321_ours.png"],"rank_data":[1,2,0],"rank_result":["ours/035321_ours.png","ce/035321_ce.png","gl/035321_gl.png"],"rt":10691,"trial_type":"image-rank","trial_index":16,"time_elapsed":168655,"internal_node_id":"0.0-16.0"},{"src":["ours/032835_ours.png","ce/032835_ce.png","gl/032835_gl.png"],"rank_data":[0,2,1],"rank_result":["ours/032835_ours.png","gl/032835_gl.png","ce/032835_ce.png"],"rt":6012,"trial_type":"image-rank","trial_index":17,"time_elapsed":174669,"internal_node_id":"0.0-17.0"},{"src":["gl/026957_gl.png","ours/026957_ours.png","ce/026957_ce.png"],"rank_data":[2,0,1],"rank_result":["ours/026957_ours.png","ce/026957_ce.png","gl/026957_gl.png"],"rt":5174,"trial_type":"image-rank","trial_index":18,"time_elapsed":179845,"internal_node_id":"0.0-18.0"},{"src":["ce/180592_ce.png","gl/180592_gl.png","ours/180592_ours.png"],"rank_data":[2,1,0],"rank_result":["ours/180592_ours.png","gl/180592_gl.png","ce/180592_ce.png"],"rt":4935,"trial_type":"image-rank","trial_index":19,"time_elapsed":184780,"internal_node_id":"0.0-19.0"},{"src":["ce/133266_ce.png","ours/133266_ours.png","gl/133266_gl.png"],"rank_data":[1,0,2],"rank_result":["ours/133266_ours.png","ce/133266_ce.png","gl/133266_gl.png"],"rt":20770,"trial_type":"image-rank","trial_index":20,"time_elapsed":205551,"internal_node_id":"0.0-20.0"},{"src":["ce/082166_ce.png","ours/082166_ours.png","gl/082166_gl.png"],"rank_data":[1,0,2],"rank_result":["ours/082166_ours.png","ce/082166_ce.png","gl/082166_gl.png"],"rt":17251,"trial_type":"image-rank","trial_index":21,"time_elapsed":222803,"internal_node_id":"0.0-21.0"},{"src":["gl/184790_gl.png","ours/184790_ours.png","ce/184790_ce.png"],"rank_data":[2,0,1],"rank_result":["ours/184790_ours.png","ce/184790_ce.png","gl/184790_gl.png"],"rt":25890,"trial_type":"image-rank","trial_index":22,"time_elapsed":248700,"internal_node_id":"0.0-22.0"},{"src":["gl/044315_gl.png","ours/044315_ours.png","ce/044315_ce.png"],"rank_data":[2,1,0],"rank_result":["ce/044315_ce.png","ours/044315_ours.png","gl/044315_gl.png"],"rt":6870,"trial_type":"image-rank","trial_index":23,"time_elapsed":255572,"internal_node_id":"0.0-23.0"},{"src":["gl/172056_gl.png","ours/172056_ours.png","ce/172056_ce.png"],"rank_data":[2,0,1],"rank_result":["ours/172056_ours.png","ce/172056_ce.png","gl/172056_gl.png"],"rt":11669,"trial_type":"image-rank","trial_index":24,"time_elapsed":267242,"internal_node_id":"0.0-24.0"},{"src":["gl/005894_gl.png","ce/005894_ce.png","ours/005894_ours.png"],"rank_data":[1,2,0],"rank_result":["ours/005894_ours.png","gl/005894_gl.png","ce/005894_ce.png"],"rt":11876,"trial_type":"image-rank","trial_index":25,"time_elapsed":279119,"internal_node_id":"0.0-25.0"},{"src":["ours/162439_ours.png","ce/162439_ce.png","gl/162439_gl.png"],"rank_data":[0,1,2],"rank_result":["ours/162439_ours.png","ce/162439_ce.png","gl/162439_gl.png"],"rt":15384,"trial_type":"image-rank","trial_index":26,"time_elapsed":294504,"internal_node_id":"0.0-26.0"},{"src":["gl/035861_gl.png","ce/035861_ce.png","ours/035861_ours.png"],"rank_data":[2,1,0],"rank_result":["ours/035861_ours.png","ce/035861_ce.png","gl/035861_gl.png"],"rt":9998,"trial_type":"image-rank","trial_index":27,"time_elapsed":304502,"internal_node_id":"0.0-27.0"},{"src":["gl/191289_gl.png","ce/191289_ce.png","ours/191289_ours.png"],"rank_data":[2,0,1],"rank_result":["ce/191289_ce.png","ours/191289_ours.png","gl/191289_gl.png"],"rt":10713,"trial_type":"image-rank","trial_index":28,"time_elapsed":315217,"internal_node_id":"0.0-28.0"},{"src":["gl/193700_gl.png","ce/193700_ce.png","ours/193700_ours.png"],"rank_data":[2,1,0],"rank_result":["ours/193700_ours.png","ce/193700_ce.png","gl/193700_gl.png"],"rt":14722,"trial_type":"image-rank","trial_index":29,"time_elapsed":329940,"internal_node_id":"0.0-29.0"},{"src":["gl/008966_gl.png","ce/008966_ce.png","ours/008966_ours.png"],"rank_data":[1,2,0],"rank_result":["ours/008966_ours.png","gl/008966_gl.png","ce/008966_ce.png"],"rt":10111,"trial_type":"image-rank","trial_index":30,"time_elapsed":340052,"internal_node_id":"0.0-30.0"},{"src":["gl/013838_gl.png","ce/013838_ce.png","ours/013838_ours.png"],"rank_data":[0,2,1],"rank_result":["gl/013838_gl.png","ours/013838_ours.png","ce/013838_ce.png"],"rt":15228,"trial_type":"image-rank","trial_index":31,"time_elapsed":355283,"internal_node_id":"0.0-31.0"},{"src":["gl/026868_gl.png","ce/026868_ce.png","ours/026868_ours.png"],"rank_data":[1,2,0],"rank_result":["ours/026868_ours.png","gl/026868_gl.png","ce/026868_ce.png"],"rt":7522,"trial_type":"image-rank","trial_index":32,"time_elapsed":362807,"internal_node_id":"0.0-32.0"},{"src":["ours/150030_ours.png","gl/150030_gl.png","ce/150030_ce.png"],"rank_data":[0,1,2],"rank_result":["ours/150030_ours.png","gl/150030_gl.png","ce/150030_ce.png"],"rt":13467,"trial_type":"image-rank","trial_index":33,"time_elapsed":376275,"internal_node_id":"0.0-33.0"},{"src":["gl/052069_gl.png","ours/052069_ours.png","ce/052069_ce.png"],"rank_data":[1,2,0],"rank_result":["ce/052069_ce.png","gl/052069_gl.png","ours/052069_ours.png"],"rt":21972,"trial_type":"image-rank","trial_index":34,"time_elapsed":398247,"internal_node_id":"0.0-34.0"},{"src":["ours/012740_ours.png","ce/012740_ce.png","gl/012740_gl.png"],"rank_data":[0,2,1],"rank_result":["ours/012740_ours.png","gl/012740_gl.png","ce/012740_ce.png"],"rt":5463,"trial_type":"image-rank","trial_index":35,"time_elapsed":403712,"internal_node_id":"0.0-35.0"},{"src":["ce/111674_ce.png","ours/111674_ours.png","gl/111674_gl.png"],"rank_data":[2,0,1],"rank_result":["ours/111674_ours.png","gl/111674_gl.png","ce/111674_ce.png"],"rt":5873,"trial_type":"image-rank","trial_index":36,"time_elapsed":409586,"internal_node_id":"0.0-36.0"},{"src":["ours/082839_ours.png","gl/082839_gl.png","ce/082839_ce.png"],"rank_data":[0,2,1],"rank_result":["ours/082839_ours.png","ce/082839_ce.png","gl/082839_gl.png"],"rt":8701,"trial_type":"image-rank","trial_index":37,"time_elapsed":418288,"internal_node_id":"0.0-37.0"},{"src":["gl/142980_gl.png","ce/142980_ce.png","ours/142980_ours.png"],"rank_data":[1,2,0],"rank_result":["ours/142980_ours.png","gl/142980_gl.png","ce/142980_ce.png"],"rt":7224,"trial_type":"image-rank","trial_index":38,"time_elapsed":425513,"internal_node_id":"0.0-38.0"},{"src":["ce/073257_ce.png","gl/073257_gl.png","ours/073257_ours.png"],"rank_data":[1,2,0],"rank_result":["ours/073257_ours.png","ce/073257_ce.png","gl/073257_gl.png"],"rt":7096,"trial_type":"image-rank","trial_index":39,"time_elapsed":432610,"internal_node_id":"0.0-39.0"},{"src":["gl/184919_gl.png","ours/184919_ours.png","ce/184919_ce.png"],"rank_data":[2,0,1],"rank_result":["ours/184919_ours.png","ce/184919_ce.png","gl/184919_gl.png"],"rt":8492,"trial_type":"image-rank","trial_index":40,"time_elapsed":441103,"internal_node_id":"0.0-40.0"},{"src":["gl/132558_gl.png","ce/132558_ce.png","ours/132558_ours.png"],"rank_data":[2,1,0],"rank_result":["ours/132558_ours.png","ce/132558_ce.png","gl/132558_gl.png"],"rt":23964,"trial_type":"image-rank","trial_index":41,"time_elapsed":465068,"internal_node_id":"0.0-41.0"},{"src":["gl/196509_gl.png","ours/196509_ours.png","ce/196509_ce.png"],"rank_data":[2,0,1],"rank_result":["ours/196509_ours.png","ce/196509_ce.png","gl/196509_gl.png"],"rt":5151,"trial_type":"image-rank","trial_index":42,"time_elapsed":470220,"internal_node_id":"0.0-42.0"},{"src":["ours/184844_ours.png","ce/184844_ce.png","gl/184844_gl.png"],"rank_data":[0,2,1],"rank_result":["ours/184844_ours.png","gl/184844_gl.png","ce/184844_ce.png"],"rt":5105,"trial_type":"image-rank","trial_index":43,"time_elapsed":475326,"internal_node_id":"0.0-43.0"},{"src":["ours/100445_ours.png","ce/100445_ce.png","gl/100445_gl.png"],"rank_data":[0,2,1],"rank_result":["ours/100445_ours.png","gl/100445_gl.png","ce/100445_ce.png"],"rt":10864,"trial_type":"image-rank","trial_index":44,"time_elapsed":486191,"internal_node_id":"0.0-44.0"},{"src":["ce/019324_ce.png","ours/019324_ours.png","gl/019324_gl.png"],"rank_data":[1,0,2],"rank_result":["ours/019324_ours.png","ce/019324_ce.png","gl/019324_gl.png"],"rt":7825,"trial_type":"image-rank","trial_index":45,"time_elapsed":494017,"internal_node_id":"0.0-45.0"},{"src":["ce/014363_ce.png","ours/014363_ours.png","gl/014363_gl.png"],"rank_data":[1,0,2],"rank_result":["ours/014363_ours.png","ce/014363_ce.png","gl/014363_gl.png"],"rt":6229,"trial_type":"image-rank","trial_index":46,"time_elapsed":500247,"internal_node_id":"0.0-46.0"},{"src":["ce/168058_ce.png","gl/168058_gl.png","ours/168058_ours.png"],"rank_data":[2,1,0],"rank_result":["ours/168058_ours.png","gl/168058_gl.png","ce/168058_ce.png"],"rt":6051,"trial_type":"image-rank","trial_index":47,"time_elapsed":506299,"internal_node_id":"0.0-47.0"},{"src":["gl/002475_gl.png","ce/002475_ce.png","ours/002475_ours.png"],"rank_data":[0,2,1],"rank_result":["gl/002475_gl.png","ours/002475_ours.png","ce/002475_ce.png"],"rt":6761,"trial_type":"image-rank","trial_index":48,"time_elapsed":513063,"internal_node_id":"0.0-48.0"},{"src":["ours/056780_ours.png","gl/056780_gl.png","ce/056780_ce.png"],"rank_data":[1,0,2],"rank_result":["gl/056780_gl.png","ours/056780_ours.png","ce/056780_ce.png"],"rt":14542,"trial_type":"image-rank","trial_index":49,"time_elapsed":527608,"internal_node_id":"0.0-49.0"},{"src":["ce/028058_ce.png","gl/028058_gl.png","ours/028058_ours.png"],"rank_data":[1,2,0],"rank_result":["ours/028058_ours.png","ce/028058_ce.png","gl/028058_gl.png"],"rt":5030,"trial_type":"image-rank","trial_index":50,"time_elapsed":532639,"internal_node_id":"0.0-50.0"},{"src":["ce/077267_ce.png","gl/077267_gl.png","ours/077267_ours.png"],"rank_data":[1,2,0],"rank_result":["ours/077267_ours.png","ce/077267_ce.png","gl/077267_gl.png"],"rt":4660,"trial_type":"image-rank","trial_index":51,"time_elapsed":537299,"internal_node_id":"0.0-51.0"},{"src":["ours/013404_ours.png","ce/013404_ce.png","gl/013404_gl.png"],"rank_data":[0,1,2],"rank_result":["ours/013404_ours.png","ce/013404_ce.png","gl/013404_gl.png"],"rt":8223,"trial_type":"image-rank","trial_index":52,"time_elapsed":545523,"internal_node_id":"0.0-52.0"},{"src":["ce/109494_ce.png","gl/109494_gl.png","ours/109494_ours.png"],"rank_data":[2,1,0],"rank_result":["ours/109494_ours.png","gl/109494_gl.png","ce/109494_ce.png"],"rt":10168,"trial_type":"image-rank","trial_index":53,"time_elapsed":555692,"internal_node_id":"0.0-53.0"},{"src":["ce/019818_ce.png","ours/019818_ours.png","gl/019818_gl.png"],"rank_data":[2,0,1],"rank_result":["ours/019818_ours.png","gl/019818_gl.png","ce/019818_ce.png"],"rt":6492,"trial_type":"image-rank","trial_index":54,"time_elapsed":562185,"internal_node_id":"0.0-54.0"},{"src":["ce/084686_ce.png","gl/084686_gl.png","ours/084686_ours.png"],"rank_data":[2,1,0],"rank_result":["ours/084686_ours.png","gl/084686_gl.png","ce/084686_ce.png"],"rt":5715,"trial_type":"image-rank","trial_index":55,"time_elapsed":567900,"internal_node_id":"0.0-55.0"},{"src":["gl/035946_gl.png","ce/035946_ce.png","ours/035946_ours.png"],"rank_data":[2,1,0],"rank_result":["ours/035946_ours.png","ce/035946_ce.png","gl/035946_gl.png"],"rt":10040,"trial_type":"image-rank","trial_index":56,"time_elapsed":577942,"internal_node_id":"0.0-56.0"},{"src":["ours/010213_ours.png","gl/010213_gl.png","ce/010213_ce.png"],"rank_data":[0,2,1],"rank_result":["ours/010213_ours.png","ce/010213_ce.png","gl/010213_gl.png"],"rt":7130,"trial_type":"image-rank","trial_index":57,"time_elapsed":585073,"internal_node_id":"0.0-57.0"},{"src":["ours/103561_ours.png","gl/103561_gl.png","ce/103561_ce.png"],"rank_data":[0,2,1],"rank_result":["ours/103561_ours.png","ce/103561_ce.png","gl/103561_gl.png"],"rt":5062,"trial_type":"image-rank","trial_index":58,"time_elapsed":590135,"internal_node_id":"0.0-58.0"},{"src":["ours/031244_ours.png","ce/031244_ce.png","gl/031244_gl.png"],"rank_data":[0,1,2],"rank_result":["ours/031244_ours.png","ce/031244_ce.png","gl/031244_gl.png"],"rt":5094,"trial_type":"image-rank","trial_index":59,"time_elapsed":595231,"internal_node_id":"0.0-59.0"},{"src":["ce/074556_ce.png","ours/074556_ours.png","gl/074556_gl.png"],"rank_data":[1,0,2],"rank_result":["ours/074556_ours.png","ce/074556_ce.png","gl/074556_gl.png"],"rt":6801,"trial_type":"image-rank","trial_index":60,"time_elapsed":602032,"internal_node_id":"0.0-60.0"},{"src":["ours/134738_ours.png","ce/134738_ce.png","gl/134738_gl.png"],"rank_data":[0,2,1],"rank_result":["ours/134738_ours.png","gl/134738_gl.png","ce/134738_ce.png"],"rt":4484,"trial_type":"image-rank","trial_index":61,"time_elapsed":606516,"internal_node_id":"0.0-61.0"},{"src":["ours/129142_ours.png","ce/129142_ce.png","gl/129142_gl.png"],"rank_data":[0,1,2],"rank_result":["ours/129142_ours.png","ce/129142_ce.png","gl/129142_gl.png"],"rt":6132,"trial_type":"image-rank","trial_index":62,"time_elapsed":612649,"internal_node_id":"0.0-62.0"},{"src":["gl/081343_gl.png","ours/081343_ours.png","ce/081343_ce.png"],"rank_data":[2,0,1],"rank_result":["ours/081343_ours.png","ce/081343_ce.png","gl/081343_gl.png"],"rt":5452,"trial_type":"image-rank","trial_index":63,"time_elapsed":618102,"internal_node_id":"0.0-63.0"},{"src":["gl/073661_gl.png","ours/073661_ours.png","ce/073661_ce.png"],"rank_data":[2,0,1],"rank_result":["ours/073661_ours.png","ce/073661_ce.png","gl/073661_gl.png"],"rt":5238,"trial_type":"image-rank","trial_index":64,"time_elapsed":623341,"internal_node_id":"0.0-64.0"},{"src":["gl/124523_gl.png","ours/124523_ours.png","ce/124523_ce.png"],"rank_data":[2,0,1],"rank_result":["ours/124523_ours.png","ce/124523_ce.png","gl/124523_gl.png"],"rt":4276,"trial_type":"image-rank","trial_index":65,"time_elapsed":627618,"internal_node_id":"0.0-65.0"},{"src":["ce/018736_ce.png","ours/018736_ours.png","gl/018736_gl.png"],"rank_data":[1,0,2],"rank_result":["ours/018736_ours.png","ce/018736_ce.png","gl/018736_gl.png"],"rt":4090,"trial_type":"image-rank","trial_index":66,"time_elapsed":631709,"internal_node_id":"0.0-66.0"},{"src":["ours/045712_ours.png","ce/045712_ce.png","gl/045712_gl.png"],"rank_data":[0,1,2],"rank_result":["ours/045712_ours.png","ce/045712_ce.png","gl/045712_gl.png"],"rt":3962,"trial_type":"image-rank","trial_index":67,"time_elapsed":635672,"internal_node_id":"0.0-67.0"},{"src":["ours/034334_ours.png","ce/034334_ce.png","gl/034334_gl.png"],"rank_data":[0,2,1],"rank_result":["ours/034334_ours.png","gl/034334_gl.png","ce/034334_ce.png"],"rt":3476,"trial_type":"image-rank","trial_index":68,"time_elapsed":639150,"internal_node_id":"0.0-68.0"},{"src":["gl/037465_gl.png","ce/037465_ce.png","ours/037465_ours.png"],"rank_data":[0,2,1],"rank_result":["gl/037465_gl.png","ours/037465_ours.png","ce/037465_ce.png"],"rt":4929,"trial_type":"image-rank","trial_index":69,"time_elapsed":644080,"internal_node_id":"0.0-69.0"},{"src":["ours/000129_ours.png","ce/000129_ce.png","gl/000129_gl.png"],"rank_data":[0,1,2],"rank_result":["ours/000129_ours.png","ce/000129_ce.png","gl/000129_gl.png"],"rt":5656,"trial_type":"image-rank","trial_index":70,"time_elapsed":649737,"internal_node_id":"0.0-70.0"},{"src":["ce/150174_ce.png","gl/150174_gl.png","ours/150174_ours.png"],"rank_data":[0,2,1],"rank_result":["ce/150174_ce.png","ours/150174_ours.png","gl/150174_gl.png"],"rt":4458,"trial_type":"image-rank","trial_index":71,"time_elapsed":654196,"internal_node_id":"0.0-71.0"},{"src":["gl/101892_gl.png","ours/101892_ours.png","ce/101892_ce.png"],"rank_data":[1,0,2],"rank_result":["ours/101892_ours.png","gl/101892_gl.png","ce/101892_ce.png"],"rt":5204,"trial_type":"image-rank","trial_index":72,"time_elapsed":659401,"internal_node_id":"0.0-72.0"},{"src":["ours/101844_ours.png","ce/101844_ce.png","gl/101844_gl.png"],"rank_data":[0,1,2],"rank_result":["ours/101844_ours.png","ce/101844_ce.png","gl/101844_gl.png"],"rt":4587,"trial_type":"image-rank","trial_index":73,"time_elapsed":663989,"internal_node_id":"0.0-73.0"},{"src":["ours/170333_ours.png","ce/170333_ce.png","gl/170333_gl.png"],"rank_data":[0,1,2],"rank_result":["ours/170333_ours.png","ce/170333_ce.png","gl/170333_gl.png"],"rt":5210,"trial_type":"image-rank","trial_index":74,"time_elapsed":669200,"internal_node_id":"0.0-74.0"},{"src":["gl/100259_gl.png","ce/100259_ce.png","ours/100259_ours.png"],"rank_data":[1,2,0],"rank_result":["ours/100259_ours.png","gl/100259_gl.png","ce/100259_ce.png"],"rt":5576,"trial_type":"image-rank","trial_index":75,"time_elapsed":674777,"internal_node_id":"0.0-75.0"},{"src":["ours/006072_ours.png","gl/006072_gl.png","ce/006072_ce.png"],"rank_data":[0,2,1],"rank_result":["ours/006072_ours.png","ce/006072_ce.png","gl/006072_gl.png"],"rt":13721,"trial_type":"image-rank","trial_index":76,"time_elapsed":688499,"internal_node_id":"0.0-76.0"},{"src":["ce/013052_ce.png","ours/013052_ours.png","gl/013052_gl.png"],"rank_data":[1,0,2],"rank_result":["ours/013052_ours.png","ce/013052_ce.png","gl/013052_gl.png"],"rt":5341,"trial_type":"image-rank","trial_index":77,"time_elapsed":693842,"internal_node_id":"0.0-77.0"},{"src":["gl/197201_gl.png","ce/197201_ce.png","ours/197201_ours.png"],"rank_data":[1,2,0],"rank_result":["ours/197201_ours.png","gl/197201_gl.png","ce/197201_ce.png"],"rt":20275,"trial_type":"image-rank","trial_index":78,"time_elapsed":714118,"internal_node_id":"0.0-78.0"},{"src":["ce/171376_ce.png","gl/171376_gl.png","ours/171376_ours.png"],"rank_data":[1,2,0],"rank_result":["ours/171376_ours.png","ce/171376_ce.png","gl/171376_gl.png"],"rt":5914,"trial_type":"image-rank","trial_index":79,"time_elapsed":720033,"internal_node_id":"0.0-79.0"},{"src":["ours/084581_ours.png","ce/084581_ce.png","gl/084581_gl.png"],"rank_data":[0,2,1],"rank_result":["ours/084581_ours.png","gl/084581_gl.png","ce/084581_ce.png"],"rt":7357,"trial_type":"image-rank","trial_index":80,"time_elapsed":727391,"internal_node_id":"0.0-80.0"},{"src":["ours/182813_ours.png","ce/182813_ce.png","gl/182813_gl.png"],"rank_data":[0,1,2],"rank_result":["ours/182813_ours.png","ce/182813_ce.png","gl/182813_gl.png"],"rt":6259,"trial_type":"image-rank","trial_index":81,"time_elapsed":733651,"internal_node_id":"0.0-81.0"},{"src":["ours/079814_ours.png","ce/079814_ce.png","gl/079814_gl.png"],"rank_data":[0,1,2],"rank_result":["ours/079814_ours.png","ce/079814_ce.png","gl/079814_gl.png"],"rt":7872,"trial_type":"image-rank","trial_index":82,"time_elapsed":741524,"internal_node_id":"0.0-82.0"},{"src":["ours/067391_ours.png","ce/067391_ce.png","gl/067391_gl.png"],"rank_data":[0,2,1],"rank_result":["ours/067391_ours.png","gl/067391_gl.png","ce/067391_ce.png"],"rt":7020,"trial_type":"image-rank","trial_index":83,"time_elapsed":748544,"internal_node_id":"0.0-83.0"},{"src":["ce/101856_ce.png","gl/101856_gl.png","ours/101856_ours.png"],"rank_data":[1,2,0],"rank_result":["ours/101856_ours.png","ce/101856_ce.png","gl/101856_gl.png"],"rt":8025,"trial_type":"image-rank","trial_index":84,"time_elapsed":756571,"internal_node_id":"0.0-84.0"},{"src":["gl/148533_gl.png","ours/148533_ours.png","ce/148533_ce.png"],"rank_data":[1,0,2],"rank_result":["ours/148533_ours.png","gl/148533_gl.png","ce/148533_ce.png"],"rt":6988,"trial_type":"image-rank","trial_index":85,"time_elapsed":763560,"internal_node_id":"0.0-85.0"},{"src":["ours/138900_ours.png","gl/138900_gl.png","ce/138900_ce.png"],"rank_data":[0,1,2],"rank_result":["ours/138900_ours.png","gl/138900_gl.png","ce/138900_ce.png"],"rt":4578,"trial_type":"image-rank","trial_index":86,"time_elapsed":768139,"internal_node_id":"0.0-86.0"},{"src":["gl/003240_gl.png","ours/003240_ours.png","ce/003240_ce.png"],"rank_data":[2,0,1],"rank_result":["ours/003240_ours.png","ce/003240_ce.png","gl/003240_gl.png"],"rt":6435,"trial_type":"image-rank","trial_index":87,"time_elapsed":774575,"internal_node_id":"0.0-87.0"},{"src":["ce/151091_ce.png","gl/151091_gl.png","ours/151091_ours.png"],"rank_data":[2,1,0],"rank_result":["ours/151091_ours.png","gl/151091_gl.png","ce/151091_ce.png"],"rt":13452,"trial_type":"image-rank","trial_index":88,"time_elapsed":788028,"internal_node_id":"0.0-88.0"},{"src":["gl/031758_gl.png","ce/031758_ce.png","ours/031758_ours.png"],"rank_data":[1,2,0],"rank_result":["ours/031758_ours.png","gl/031758_gl.png","ce/031758_ce.png"],"rt":5893,"trial_type":"image-rank","trial_index":89,"time_elapsed":793922,"internal_node_id":"0.0-89.0"},{"src":["ours/072648_ours.png","gl/072648_gl.png","ce/072648_ce.png"],"rank_data":[0,1,2],"rank_result":["ours/072648_ours.png","gl/072648_gl.png","ce/072648_ce.png"],"rt":5233,"trial_type":"image-rank","trial_index":90,"time_elapsed":799156,"internal_node_id":"0.0-90.0"},{"src":["ce/183434_ce.png","gl/183434_gl.png","ours/183434_ours.png"],"rank_data":[2,1,0],"rank_result":["ours/183434_ours.png","gl/183434_gl.png","ce/183434_ce.png"],"rt":6092,"trial_type":"image-rank","trial_index":91,"time_elapsed":805249,"internal_node_id":"0.0-91.0"},{"src":["gl/114670_gl.png","ce/114670_ce.png","ours/114670_ours.png"],"rank_data":[2,1,0],"rank_result":["ours/114670_ours.png","ce/114670_ce.png","gl/114670_gl.png"],"rt":5989,"trial_type":"image-rank","trial_index":92,"time_elapsed":811239,"internal_node_id":"0.0-92.0"},{"src":["ce/050140_ce.png","gl/050140_gl.png","ours/050140_ours.png"],"rank_data":[1,2,0],"rank_result":["ours/050140_ours.png","ce/050140_ce.png","gl/050140_gl.png"],"rt":5902,"trial_type":"image-rank","trial_index":93,"time_elapsed":817142,"internal_node_id":"0.0-93.0"},{"src":["gl/002608_gl.png","ce/002608_ce.png","ours/002608_ours.png"],"rank_data":[1,2,0],"rank_result":["ours/002608_ours.png","gl/002608_gl.png","ce/002608_ce.png"],"rt":9166,"trial_type":"image-rank","trial_index":94,"time_elapsed":826309,"internal_node_id":"0.0-94.0"},{"src":["ce/010428_ce.png","ours/010428_ours.png","gl/010428_gl.png"],"rank_data":[1,0,2],"rank_result":["ours/010428_ours.png","ce/010428_ce.png","gl/010428_gl.png"],"rt":9456,"trial_type":"image-rank","trial_index":95,"time_elapsed":835766,"internal_node_id":"0.0-95.0"},{"src":["ce/033777_ce.png","gl/033777_gl.png","ours/033777_ours.png"],"rank_data":[2,1,0],"rank_result":["ours/033777_ours.png","gl/033777_gl.png","ce/033777_ce.png"],"rt":6697,"trial_type":"image-rank","trial_index":96,"time_elapsed":842464,"internal_node_id":"0.0-96.0"},{"src":["ce/102362_ce.png","ours/102362_ours.png","gl/102362_gl.png"],"rank_data":[2,0,1],"rank_result":["ours/102362_ours.png","gl/102362_gl.png","ce/102362_ce.png"],"rt":5687,"trial_type":"image-rank","trial_index":97,"time_elapsed":848151,"internal_node_id":"0.0-97.0"},{"src":["gl/077878_gl.png","ce/077878_ce.png","ours/077878_ours.png"],"rank_data":[2,1,0],"rank_result":["ours/077878_ours.png","ce/077878_ce.png","gl/077878_gl.png"],"rt":3816,"trial_type":"image-rank","trial_index":98,"time_elapsed":851968,"internal_node_id":"0.0-98.0"},{"src":["ce/002066_ce.png","gl/002066_gl.png","ours/002066_ours.png"],"rank_data":[2,1,0],"rank_result":["ours/002066_ours.png","gl/002066_gl.png","ce/002066_ce.png"],"rt":6499,"trial_type":"image-rank","trial_index":99,"time_elapsed":858468,"internal_node_id":"0.0-99.0"},{"src":["ours/169938_ours.png","gl/169938_gl.png","ce/169938_ce.png"],"rank_data":[0,2,1],"rank_result":["ours/169938_ours.png","ce/169938_ce.png","gl/169938_gl.png"],"rt":4928,"trial_type":"image-rank","trial_index":100,"time_elapsed":863397,"internal_node_id":"0.0-100.0"},{"src":["ce/180599_ce.png","ours/180599_ours.png","gl/180599_gl.png"],"rank_data":[1,0,2],"rank_result":["ours/180599_ours.png","ce/180599_ce.png","gl/180599_gl.png"],"rt":3744,"trial_type":"image-rank","trial_index":101,"time_elapsed":867142,"internal_node_id":"0.0-101.0"},{"src":["ce/068650_ce.png","ours/068650_ours.png","gl/068650_gl.png"],"rank_data":[2,0,1],"rank_result":["ours/068650_ours.png","gl/068650_gl.png","ce/068650_ce.png"],"rt":9277,"trial_type":"image-rank","trial_index":102,"time_elapsed":876420,"internal_node_id":"0.0-102.0"}]