[{"rt":3647,"stimulus":"Welcome to the experiment. Press any key to begin.","key_press":32,"trial_type":"html-keyboard-response","trial_index":0,"time_elapsed":3649,"internal_node_id":"0.0-0.0"},{"rt":18592,"stimulus":"<p>In this experiment, three images of people will appear in the center of the screen.</p><p>Your task is to rank these images based on how <strong>real</strong> you think they are.<p>The ranking level is between 1 to 3, with <strong>1</strong> representing the most realistic one and <strong>3</strong> the least realistic one.</p><p>There are totally 100 groups of images. The time to rank is not limited. </p> <p>When you finish one group, click the <strong>Continue</strong> button to continue to the next one.</p><p>At the end of the experiment, your name and age will be asked and recorded.</p>","key_press":32,"trial_type":"html-keyboard-response","trial_index":1,"time_elapsed":22243,"internal_node_id":"0.0-1.0"},{"rt":null,"stimulus":"<div style=\"font-size:60px;\"></div>","key_press":null,"trial_type":"html-keyboard-response","trial_index":2,"time_elapsed":22852,"internal_node_id":"0.0-2.0"},{"src":["ours/006866_ours.png","gl/006866_gl.png","ce/006866_ce.png"],"rank_data":[0,2,1],"rank_result":["ours/006866_ours.png","ce/006866_ce.png","gl/006866_gl.png"],"rt":9163,"trial_type":"image-rank","trial_index":3,"time_elapsed":32017,"internal_node_id":"0.0-3.0"},{"src":["ours/050345_ours.png","ce/050345_ce.png","gl/050345_gl.png"],"rank_data":[1,0,2],"rank_result":["ce/050345_ce.png","ours/050345_ours.png","gl/050345_gl.png"],"rt":10039,"trial_type":"image-rank","trial_index":4,"time_elapsed":42057,"internal_node_id":"0.0-4.0"},{"src":["ours/194549_ours.png","gl/194549_gl.png","ce/194549_ce.png"],"rank_data":[0,1,2],"rank_result":["ours/194549_ours.png","gl/194549_gl.png","ce/194549_ce.png"],"rt":7989,"trial_type":"image-rank","trial_index":5,"time_elapsed":50047,"internal_node_id":"0.0-5.0"},{"src":["ours/200741_ours.png","ce/200741_ce.png","gl/200741_gl.png"],"rank_data":[0,1,2],"rank_result":["ours/200741_ours.png","ce/200741_ce.png","gl/200741_gl.png"],"rt":5719,"trial_type":"image-rank","trial_index":6,"time_elapsed":55767,"internal_node_id":"0.0-6.0"},{"src":["gl/196062_gl.png","ours/196062_ours.png","ce/196062_ce.png"],"rank_data":[2,0,1],"rank_result":["ours/196062_ours.png","ce/196062_ce.png","gl/196062_gl.png"],"rt":64988,"trial_type":"image-rank","trial_index":7,"time_elapsed":120756,"internal_node_id":"0.0-7.0"},{"src":["ours/045735_ours.png","gl/045735_gl.png","ce/045735_ce.png"],"rank_data":[0,2,1],"rank_result":["ours/045735_ours.png","ce/045735_ce.png","gl/045735_gl.png"],"rt":5792,"trial_type":"image-rank","trial_index":8,"time_elapsed":126549,"internal_node_id":"0.0-8.0"},{"src":["gl/195511_gl.png","ours/195511_ours.png","ce/195511_ce.png"],"rank_data":[1,0,2],"rank_result":["ours/195511_ours.png","gl/195511_gl.png","ce/195511_ce.png"],"rt":7162,"trial_type":"image-rank","trial_index":9,"time_elapsed":133712,"internal_node_id":"0.0-9.0"},{"src":["ours/201421_ours.png","gl/201421_gl.png","ce/201421_ce.png"],"rank_data":[0,1,2],"rank_result":["ours/201421_ours.png","gl/201421_gl.png","ce/201421_ce.png"],"rt":5789,"trial_type":"image-rank","trial_index":10,"time_elapsed":139502,"internal_node_id":"0.0-10.0"},{"src":["gl/175564_gl.png","ours/175564_ours.png","ce/175564_ce.png"],"rank_data":[2,0,1],"rank_result":["ours/175564_ours.png","ce/175564_ce.png","gl/175564_gl.png"],"rt":9142,"trial_type":"image-rank","trial_index":11,"time_elapsed":148646,"internal_node_id":"0.0-11.0"},{"src":["ce/201195_ce.png","ours/201195_ours.png","gl/201195_gl.png"],"rank_data":[2,0,1],"rank_result":["ours/201195_ours.png","gl/201195_gl.png","ce/201195_ce.png"],"rt":5226,"trial_type":"image-rank","trial_index":12,"time_elapsed":153872,"internal_node_id":"0.0-12.0"},{"src":["gl/100984_gl.png","ours/100984_ours.png","ce/100984_ce.png"],"rank_data":[2,0,1],"rank_result":["ours/100984_ours.png","ce/100984_ce.png","gl/100984_gl.png"],"rt":5663,"trial_type":"image-rank","trial_index":13,"time_elapsed":159537,"internal_node_id":"0.0-13.0"},{"src":["ours/024154_ours.png","gl/024154_gl.png","ce/024154_ce.png"],"rank_data":[0,2,1],"rank_result":["ours/024154_ours.png","ce/024154_ce.png","gl/024154_gl.png"],"rt":54136,"trial_type":"image-rank","trial_index":14,"time_elapsed":213674,"internal_node_id":"0.0-14.0"},{"src":["ce/107492_ce.png","gl/107492_gl.png","ours/107492_ours.png"],"rank_data":[0,2,1],"rank_result":["ce/107492_ce.png","ours/107492_ours.png","gl/107492_gl.png"],"rt":5460,"trial_type":"image-rank","trial_index":15,"time_elapsed":219135,"internal_node_id":"0.0-15.0"},{"src":["ce/077165_ce.png","gl/077165_gl.png","ours/077165_ours.png"],"rank_data":[1,2,0],"rank_result":["ours/077165_ours.png","ce/077165_ce.png","gl/077165_gl.png"],"rt":7512,"trial_type":"image-rank","trial_index":16,"time_elapsed":226648,"internal_node_id":"0.0-16.0"},{"src":["ours/083782_ours.png","gl/083782_gl.png","ce/083782_ce.png"],"rank_data":[0,2,1],"rank_result":["ours/083782_ours.png","ce/083782_ce.png","gl/083782_gl.png"],"rt":5652,"trial_type":"image-rank","trial_index":17,"time_elapsed":232301,"internal_node_id":"0.0-17.0"},{"src":["ce/116558_ce.png","gl/116558_gl.png","ours/116558_ours.png"],"rank_data":[1,2,0],"rank_result":["ours/116558_ours.png","ce/116558_ce.png","gl/116558_gl.png"],"rt":6549,"trial_type":"image-rank","trial_index":18,"time_elapsed":238851,"internal_node_id":"0.0-18.0"},{"src":["ours/153185_ours.png","gl/153185_gl.png","ce/153185_ce.png"],"rank_data":[0,2,1],"rank_result":["ours/153185_ours.png","ce/153185_ce.png","gl/153185_gl.png"],"rt":4595,"trial_type":"image-rank","trial_index":19,"time_elapsed":243447,"internal_node_id":"0.0-19.0"},{"src":["ce/038697_ce.png","ours/038697_ours.png","gl/038697_gl.png"],"rank_data":[1,0,2],"rank_result":["ours/038697_ours.png","ce/038697_ce.png","gl/038697_gl.png"],"rt":6347,"trial_type":"image-rank","trial_index":20,"time_elapsed":249794,"internal_node_id":"0.0-20.0"},{"src":["ours/174899_ours.png","gl/174899_gl.png","ce/174899_ce.png"],"rank_data":[0,2,1],"rank_result":["ours/174899_ours.png","ce/174899_ce.png","gl/174899_gl.png"],"rt":7411,"trial_type":"image-rank","trial_index":21,"time_elapsed":257207,"internal_node_id":"0.0-21.0"},{"src":["ours/200654_ours.png","ce/200654_ce.png","gl/200654_gl.png"],"rank_data":[0,2,1],"rank_result":["ours/200654_ours.png","gl/200654_gl.png","ce/200654_ce.png"],"rt":4317,"trial_type":"image-rank","trial_index":22,"time_elapsed":261525,"internal_node_id":"0.0-22.0"},{"src":["gl/187636_gl.png","ce/187636_ce.png","ours/187636_ours.png"],"rank_data":[1,2,0],"rank_result":["ours/187636_ours.png","gl/187636_gl.png","ce/187636_ce.png"],"rt":5963,"trial_type":"image-rank","trial_index":23,"time_elapsed":267488,"internal_node_id":"0.0-23.0"},{"src":["gl/020553_gl.png","ours/020553_ours.png","ce/020553_ce.png"],"rank_data":[2,0,1],"rank_result":["ours/020553_ours.png","ce/020553_ce.png","gl/020553_gl.png"],"rt":4665,"trial_type":"image-rank","trial_index":24,"time_elapsed":272154,"internal_node_id":"0.0-24.0"},{"src":["ours/045616_ours.png","gl/045616_gl.png","ce/045616_ce.png"],"rank_data":[0,2,1],"rank_result":["ours/045616_ours.png","ce/045616_ce.png","gl/045616_gl.png"],"rt":6312,"trial_type":"image-rank","trial_index":25,"time_elapsed":278468,"internal_node_id":"0.0-25.0"},{"src":["gl/188193_gl.png","ce/188193_ce.png","ours/188193_ours.png"],"rank_data":[2,1,0],"rank_result":["ours/188193_ours.png","ce/188193_ce.png","gl/188193_gl.png"],"rt":6236,"trial_type":"image-rank","trial_index":26,"time_elapsed":284706,"internal_node_id":"0.0-26.0"},{"src":["ce/016722_ce.png","gl/016722_gl.png","ours/016722_ours.png"],"rank_data":[2,1,0],"rank_result":["ours/016722_ours.png","gl/016722_gl.png","ce/016722_ce.png"],"rt":7385,"trial_type":"image-rank","trial_index":27,"time_elapsed":292092,"internal_node_id":"0.0-27.0"},{"src":["gl/197320_gl.png","ce/197320_ce.png","ours/197320_ours.png"],"rank_data":[1,2,0],"rank_result":["ours/197320_ours.png","gl/197320_gl.png","ce/197320_ce.png"],"rt":4680,"trial_type":"image-rank","trial_index":28,"time_elapsed":296772,"internal_node_id":"0.0-28.0"},{"src":["ce/122296_ce.png","ours/122296_ours.png","gl/122296_gl.png"],"rank_data":[1,0,2],"rank_result":["ours/122296_ours.png","ce/122296_ce.png","gl/122296_gl.png"],"rt":5763,"trial_type":"image-rank","trial_index":29,"time_elapsed":302537,"internal_node_id":"0.0-29.0"},{"src":["ce/196113_ce.png","ours/196113_ours.png","gl/196113_gl.png"],"rank_data":[1,0,2],"rank_result":["ours/196113_ours.png","ce/196113_ce.png","gl/196113_gl.png"],"rt":10481,"trial_type":"image-rank","trial_index":30,"time_elapsed":313019,"internal_node_id":"0.0-30.0"},{"src":["ours/178809_ours.png","ce/178809_ce.png","gl/178809_gl.png"],"rank_data":[1,0,2],"rank_result":["ce/178809_ce.png","ours/178809_ours.png","gl/178809_gl.png"],"rt":9052,"trial_type":"image-rank","trial_index":31,"time_elapsed":322073,"internal_node_id":"0.0-31.0"},{"src":["gl/196669_gl.png","ours/196669_ours.png","ce/196669_ce.png"],"rank_data":[0,1,2],"rank_result":["gl/196669_gl.png","ours/196669_ours.png","ce/196669_ce.png"],"rt":23017,"trial_type":"image-rank","trial_index":32,"time_elapsed":345091,"internal_node_id":"0.0-32.0"},{"src":["ce/036464_ce.png","ours/036464_ours.png","gl/036464_gl.png"],"rank_data":[1,0,2],"rank_result":["ours/036464_ours.png","ce/036464_ce.png","gl/036464_gl.png"],"rt":4919,"trial_type":"image-rank","trial_index":33,"time_elapsed":350011,"internal_node_id":"0.0-33.0"},{"src":["ce/002404_ce.png","ours/002404_ours.png","gl/002404_gl.png"],"rank_data":[0,1,2],"rank_result":["ce/002404_ce.png","ours/002404_ours.png","gl/002404_gl.png"],"rt":7905,"trial_type":"image-rank","trial_index":34,"time_elapsed":357917,"internal_node_id":"0.0-34.0"},{"src":["gl/025572_gl.png","ours/025572_ours.png","ce/025572_ce.png"],"rank_data":[1,0,2],"rank_result":["ours/025572_ours.png","gl/025572_gl.png","ce/025572_ce.png"],"rt":5650,"trial_type":"image-rank","trial_index":35,"time_elapsed":363568,"internal_node_id":"0.0-35.0"},{"src":["ours/017855_ours.png","gl/017855_gl.png","ce/017855_ce.png"],"rank_data":[1,2,0],"rank_result":["ce/017855_ce.png","ours/017855_ours.png","gl/017855_gl.png"],"rt":7674,"trial_type":"image-rank","trial_index":36,"time_elapsed":371242,"internal_node_id":"0.0-36.0"},{"src":["ours/104852_ours.png","ce/104852_ce.png","gl/104852_gl.png"],"rank_data":[0,1,2],"rank_result":["ours/104852_ours.png","ce/104852_ce.png","gl/104852_gl.png"],"rt":3769,"trial_type":"image-rank","trial_index":37,"time_elapsed":375013,"internal_node_id":"0.0-37.0"},{"src":["ours/160614_ours.png","gl/160614_gl.png","ce/160614_ce.png"],"rank_data":[0,2,1],"rank_result":["ours/160614_ours.png","ce/160614_ce.png","gl/160614_gl.png"],"rt":8139,"trial_type":"image-rank","trial_index":38,"time_elapsed":383153,"internal_node_id":"0.0-38.0"},{"src":["gl/199491_gl.png","ce/199491_ce.png","ours/199491_ours.png"],"rank_data":[1,2,0],"rank_result":["ours/199491_ours.png","gl/199491_gl.png","ce/199491_ce.png"],"rt":32734,"trial_type":"image-rank","trial_index":39,"time_elapsed":415888,"internal_node_id":"0.0-39.0"},{"src":["ce/134926_ce.png","ours/134926_ours.png","gl/134926_gl.png"],"rank_data":[2,0,1],"rank_result":["ours/134926_ours.png","gl/134926_gl.png","ce/134926_ce.png"],"rt":5176,"trial_type":"image-rank","trial_index":40,"time_elapsed":421065,"internal_node_id":"0.0-40.0"},{"src":["ce/130845_ce.png","gl/130845_gl.png","ours/130845_ours.png"],"rank_data":[1,2,0],"rank_result":["ours/130845_ours.png","ce/130845_ce.png","gl/130845_gl.png"],"rt":7548,"trial_type":"image-rank","trial_index":41,"time_elapsed":428614,"internal_node_id":"0.0-41.0"},{"src":["ours/050280_ours.png","gl/050280_gl.png","ce/050280_ce.png"],"rank_data":[0,1,2],"rank_result":["ours/050280_ours.png","gl/050280_gl.png","ce/050280_ce.png"],"rt":5697,"trial_type":"image-rank","trial_index":42,"time_elapsed":434312,"internal_node_id":"0.0-42.0"},{"src":["gl/004549_gl.png","ce/004549_ce.png","ours/004549_ours.png"],"rank_data":[2,1,0],"rank_result":["ours/004549_ours.png","ce/004549_ce.png","gl/004549_gl.png"],"rt":5048,"trial_type":"image-rank","trial_index":43,"time_elapsed":439361,"internal_node_id":"0.0-43.0"},{"src":["ours/121459_ours.png","gl/121459_gl.png","ce/121459_ce.png"],"rank_data":[0,1,2],"rank_result":["ours/121459_ours.png","gl/121459_gl.png","ce/121459_ce.png"],"rt":10577,"trial_type":"image-rank","trial_index":44,"time_elapsed":449939,"internal_node_id":"0.0-44.0"},{"src":["ours/045942_ours.png","ce/045942_ce.png","gl/045942_gl.png"],"rank_data":[0,1,2],"rank_result":["ours/045942_ours.png","ce/045942_ce.png","gl/045942_gl.png"],"rt":6046,"trial_type":"image-rank","trial_index":45,"time_elapsed":455986,"internal_node_id":"0.0-45.0"},{"src":["gl/010838_gl.png","ours/010838_ours.png","ce/010838_ce.png"],"rank_data":[2,1,0],"rank_result":["ce/010838_ce.png","ours/010838_ours.png","gl/010838_gl.png"],"rt":5065,"trial_type":"image-rank","trial_index":46,"time_elapsed":461051,"internal_node_id":"0.0-46.0"},{"src":["ce/168260_ce.png","gl/168260_gl.png","ours/168260_ours.png"],"rank_data":[2,1,0],"rank_result":["ours/168260_ours.png","gl/168260_gl.png","ce/168260_ce.png"],"rt":8597,"trial_type":"image-rank","trial_index":47,"time_elapsed":469650,"internal_node_id":"0.0-47.0"},{"src":["ours/085777_ours.png","ce/085777_ce.png","gl/085777_gl.png"],"rank_data":[0,1,2],"rank_result":["ours/085777_ours.png","ce/085777_ce.png","gl/085777_gl.png"],"rt":8092,"trial_type":"image-rank","trial_index":48,"time_elapsed":477743,"internal_node_id":"0.0-48.0"},{"src":["gl/089617_gl.png","ours/089617_ours.png","ce/089617_ce.png"],"rank_data":[2,1,0],"rank_result":["ce/089617_ce.png","ours/089617_ours.png","gl/089617_gl.png"],"rt":12687,"trial_type":"image-rank","trial_index":49,"time_elapsed":490431,"internal_node_id":"0.0-49.0"},{"src":["gl/199066_gl.png","ours/199066_ours.png","ce/199066_ce.png"],"rank_data":[2,0,1],"rank_result":["ours/199066_ours.png","ce/199066_ce.png","gl/199066_gl.png"],"rt":7308,"trial_type":"image-rank","trial_index":50,"time_elapsed":497740,"internal_node_id":"0.0-50.0"},{"src":["gl/043592_gl.png","ce/043592_ce.png","ours/043592_ours.png"],"rank_data":[2,1,0],"rank_result":["ours/043592_ours.png","ce/043592_ce.png","gl/043592_gl.png"],"rt":5538,"trial_type":"image-rank","trial_index":51,"time_elapsed":503279,"internal_node_id":"0.0-51.0"},{"src":["ce/052846_ce.png","ours/052846_ours.png","gl/052846_gl.png"],"rank_data":[1,0,2],"rank_result":["ours/052846_ours.png","ce/052846_ce.png","gl/052846_gl.png"],"rt":6558,"trial_type":"image-rank","trial_index":52,"time_elapsed":509837,"internal_node_id":"0.0-52.0"},{"src":["ce/197408_ce.png","ours/197408_ours.png","gl/197408_gl.png"],"rank_data":[1,0,2],"rank_result":["ours/197408_ours.png","ce/197408_ce.png","gl/197408_gl.png"],"rt":4872,"trial_type":"image-rank","trial_index":53,"time_elapsed":514711,"internal_node_id":"0.0-53.0"},{"src":["gl/132411_gl.png","ours/132411_ours.png","ce/132411_ce.png"],"rank_data":[2,0,1],"rank_result":["ours/132411_ours.png","ce/132411_ce.png","gl/132411_gl.png"],"rt":25282,"trial_type":"image-rank","trial_index":54,"time_elapsed":539994,"internal_node_id":"0.0-54.0"},{"src":["gl/111913_gl.png","ours/111913_ours.png","ce/111913_ce.png"],"rank_data":[2,0,1],"rank_result":["ours/111913_ours.png","ce/111913_ce.png","gl/111913_gl.png"],"rt":3567,"trial_type":"image-rank","trial_index":55,"time_elapsed":543562,"internal_node_id":"0.0-55.0"},{"src":["gl/023722_gl.png","ce/023722_ce.png","ours/023722_ours.png"],"rank_data":[2,1,0],"rank_result":["ours/023722_ours.png","ce/023722_ce.png","gl/023722_gl.png"],"rt":39104,"trial_type":"image-rank","trial_index":56,"time_elapsed":582666,"internal_node_id":"0.0-56.0"},{"src":["ce/007995_ce.png","ours/007995_ours.png","gl/007995_gl.png"],"rank_data":[1,0,2],"rank_result":["ours/007995_ours.png","ce/007995_ce.png","gl/007995_gl.png"],"rt":5885,"trial_type":"image-rank","trial_index":57,"time_elapsed":588552,"internal_node_id":"0.0-57.0"},{"src":["ours/178926_ours.png","gl/178926_gl.png","ce/178926_ce.png"],"rank_data":[0,1,2],"rank_result":["ours/178926_ours.png","gl/178926_gl.png","ce/178926_ce.png"],"rt":4107,"trial_type":"image-rank","trial_index":58,"time_elapsed":592660,"internal_node_id":"0.0-58.0"},{"src":["ce/187742_ce.png","ours/187742_ours.png","gl/187742_gl.png"],"rank_data":[1,0,2],"rank_result":["ours/187742_ours.png","ce/187742_ce.png","gl/187742_gl.png"],"rt":4146,"trial_type":"image-rank","trial_index":59,"time_elapsed":596807,"internal_node_id":"0.0-59.0"},{"src":["ce/045343_ce.png","ours/045343_ours.png","gl/045343_gl.png"],"rank_data":[1,0,2],"rank_result":["ours/045343_ours.png","ce/045343_ce.png","gl/045343_gl.png"],"rt":4219,"trial_type":"image-rank","trial_index":60,"time_elapsed":601027,"internal_node_id":"0.0-60.0"},{"src":["gl/166607_gl.png","ce/166607_ce.png","ours/166607_ours.png"],"rank_data":[2,1,0],"rank_result":["ours/166607_ours.png","ce/166607_ce.png","gl/166607_gl.png"],"rt":49164,"trial_type":"image-rank","trial_index":61,"time_elapsed":650191,"internal_node_id":"0.0-61.0"},{"src":["ce/086755_ce.png","gl/086755_gl.png","ours/086755_ours.png"],"rank_data":[1,2,0],"rank_result":["ours/086755_ours.png","ce/086755_ce.png","gl/086755_gl.png"],"rt":9280,"trial_type":"image-rank","trial_index":62,"time_elapsed":659473,"internal_node_id":"0.0-62.0"},{"src":["ours/116750_ours.png","ce/116750_ce.png","gl/116750_gl.png"],"rank_data":[0,2,1],"rank_result":["ours/116750_ours.png","gl/116750_gl.png","ce/116750_ce.png"],"rt":7109,"trial_type":"image-rank","trial_index":63,"time_elapsed":666582,"internal_node_id":"0.0-63.0"},{"src":["ce/027987_ce.png","gl/027987_gl.png","ours/027987_ours.png"],"rank_data":[1,2,0],"rank_result":["ours/027987_ours.png","ce/027987_ce.png","gl/027987_gl.png"],"rt":4854,"trial_type":"image-rank","trial_index":64,"time_elapsed":671438,"internal_node_id":"0.0-64.0"},{"src":["ce/125296_ce.png","gl/125296_gl.png","ours/125296_ours.png"],"rank_data":[1,2,0],"rank_result":["ours/125296_ours.png","ce/125296_ce.png","gl/125296_gl.png"],"rt":5616,"trial_type":"image-rank","trial_index":65,"time_elapsed":677055,"internal_node_id":"0.0-65.0"},{"src":["ours/064615_ours.png","ce/064615_ce.png","gl/064615_gl.png"],"rank_data":[0,1,2],"rank_result":["ours/064615_ours.png","ce/064615_ce.png","gl/064615_gl.png"],"rt":5577,"trial_type":"image-rank","trial_index":66,"time_elapsed":682632,"internal_node_id":"0.0-66.0"},{"src":["gl/084837_gl.png","ce/084837_ce.png","ours/084837_ours.png"],"rank_data":[1,2,0],"rank_result":["ours/084837_ours.png","gl/084837_gl.png","ce/084837_ce.png"],"rt":4917,"trial_type":"image-rank","trial_index":67,"time_elapsed":687551,"internal_node_id":"0.0-67.0"},{"src":["ce/080150_ce.png","ours/080150_ours.png","gl/080150_gl.png"],"rank_data":[1,0,2],"rank_result":["ours/080150_ours.png","ce/080150_ce.png","gl/080150_gl.png"],"rt":33514,"trial_type":"image-rank","trial_index":68,"time_elapsed":721066,"internal_node_id":"0.0-68.0"},{"src":["gl/110449_gl.png","ours/110449_ours.png","ce/110449_ce.png"],"rank_data":[2,0,1],"rank_result":["ours/110449_ours.png","ce/110449_ce.png","gl/110449_gl.png"],"rt":4946,"trial_type":"image-rank","trial_index":69,"time_elapsed":726016,"internal_node_id":"0.0-69.0"},{"src":["ours/076780_ours.png","gl/076780_gl.png","ce/076780_ce.png"],"rank_data":[0,1,2],"rank_result":["ours/076780_ours.png","gl/076780_gl.png","ce/076780_ce.png"],"rt":5216,"trial_type":"image-rank","trial_index":70,"time_elapsed":731233,"internal_node_id":"0.0-70.0"},{"src":["ce/067203_ce.png","gl/067203_gl.png","ours/067203_ours.png"],"rank_data":[1,2,0],"rank_result":["ours/067203_ours.png","ce/067203_ce.png","gl/067203_gl.png"],"rt":6837,"trial_type":"image-rank","trial_index":71,"time_elapsed":738071,"internal_node_id":"0.0-71.0"},{"src":["gl/032862_gl.png","ours/032862_ours.png","ce/032862_ce.png"],"rank_data":[2,0,1],"rank_result":["ours/032862_ours.png","ce/032862_ce.png","gl/032862_gl.png"],"rt":5909,"trial_type":"image-rank","trial_index":72,"time_elapsed":743981,"internal_node_id":"0.0-72.0"},{"src":["ce/174992_ce.png","ours/174992_ours.png","gl/174992_gl.png"],"rank_data":[1,0,2],"rank_result":["ours/174992_ours.png","ce/174992_ce.png","gl/174992_gl.png"],"rt":8020,"trial_type":"image-rank","trial_index":73,"time_elapsed":752002,"internal_node_id":"0.0-73.0"},{"src":["ours/012510_ours.png","gl/012510_gl.png","ce/012510_ce.png"],"rank_data":[0,1,2],"rank_result":["ours/012510_ours.png","gl/012510_gl.png","ce/012510_ce.png"],"rt":7150,"trial_type":"image-rank","trial_index":74,"time_elapsed":759154,"internal_node_id":"0.0-74.0"},{"src":["gl/114596_gl.png","ce/114596_ce.png","ours/114596_ours.png"],"rank_data":[2,1,0],"rank_result":["ours/114596_ours.png","ce/114596_ce.png","gl/114596_gl.png"],"rt":8879,"trial_type":"image-rank","trial_index":75,"time_elapsed":768034,"internal_node_id":"0.0-75.0"},{"src":["gl/137454_gl.png","ours/137454_ours.png","ce/137454_ce.png"],"rank_data":[2,0,1],"rank_result":["ours/137454_ours.png","ce/137454_ce.png","gl/137454_gl.png"],"rt":5535,"trial_type":"image-rank","trial_index":76,"time_elapsed":773570,"internal_node_id":"0.0-76.0"},{"src":["ce/013688_ce.png","gl/013688_gl.png","ours/013688_ours.png"],"rank_data":[0,2,1],"rank_result":["ce/013688_ce.png","ours/013688_ours.png","gl/013688_gl.png"],"rt":7988,"trial_type":"image-rank","trial_index":77,"time_elapsed":781558,"internal_node_id":"0.0-77.0"},{"src":["gl/036706_gl.png","ours/036706_ours.png","ce/036706_ce.png"],"rank_data":[2,1,0],"rank_result":["ce/036706_ce.png","ours/036706_ours.png","gl/036706_gl.png"],"rt":5113,"trial_type":"image-rank","trial_index":78,"time_elapsed":786673,"internal_node_id":"0.0-78.0"},{"src":["gl/095405_gl.png","ce/095405_ce.png","ours/095405_ours.png"],"rank_data":[2,1,0],"rank_result":["ours/095405_ours.png","ce/095405_ce.png","gl/095405_gl.png"],"rt":4661,"trial_type":"image-rank","trial_index":79,"time_elapsed":791335,"internal_node_id":"0.0-79.0"},{"src":["gl/086480_gl.png","ce/086480_ce.png","ours/086480_ours.png"],"rank_data":[1,2,0],"rank_result":["ours/086480_ours.png","gl/086480_gl.png","ce/086480_ce.png"],"rt":8259,"trial_type":"image-rank","trial_index":80,"time_elapsed":799595,"internal_node_id":"0.0-80.0"},{"src":["ce/196509_ce.png","gl/196509_gl.png","ours/196509_ours.png"],"rank_data":[1,2,0],"rank_result":["ours/196509_ours.png","ce/196509_ce.png","gl/196509_gl.png"],"rt":5247,"trial_type":"image-rank","trial_index":81,"time_elapsed":804843,"internal_node_id":"0.0-81.0"},{"src":["gl/156924_gl.png","ce/156924_ce.png","ours/156924_ours.png"],"rank_data":[2,1,0],"rank_result":["ours/156924_ours.png","ce/156924_ce.png","gl/156924_gl.png"],"rt":5052,"trial_type":"image-rank","trial_index":82,"time_elapsed":809896,"internal_node_id":"0.0-82.0"},{"src":["ce/049555_ce.png","gl/049555_gl.png","ours/049555_ours.png"],"rank_data":[1,2,0],"rank_result":["ours/049555_ours.png","ce/049555_ce.png","gl/049555_gl.png"],"rt":6131,"trial_type":"image-rank","trial_index":83,"time_elapsed":816027,"internal_node_id":"0.0-83.0"},{"src":["ce/168005_ce.png","gl/168005_gl.png","ours/168005_ours.png"],"rank_data":[1,2,0],"rank_result":["ours/168005_ours.png","ce/168005_ce.png","gl/168005_gl.png"],"rt":13080,"trial_type":"image-rank","trial_index":84,"time_elapsed":829109,"internal_node_id":"0.0-84.0"},{"src":["gl/149695_gl.png","ce/149695_ce.png","ours/149695_ours.png"],"rank_data":[0,2,1],"rank_result":["gl/149695_gl.png","ours/149695_ours.png","ce/149695_ce.png"],"rt":7160,"trial_type":"image-rank","trial_index":85,"time_elapsed":836270,"internal_node_id":"0.0-85.0"},{"src":["gl/068497_gl.png","ce/068497_ce.png","ours/068497_ours.png"],"rank_data":[2,1,0],"rank_result":["ours/068497_ours.png","ce/068497_ce.png","gl/068497_gl.png"],"rt":31459,"trial_type":"image-rank","trial_index":86,"time_elapsed":867730,"internal_node_id":"0.0-86.0"},{"src":["ce/023576_ce.png","ours/023576_ours.png","gl/023576_gl.png"],"rank_data":[2,0,1],"rank_result":["ours/023576_ours.png","gl/023576_gl.png","ce/023576_ce.png"],"rt":6951,"trial_type":"image-rank","trial_index":87,"time_elapsed":874682,"internal_node_id":"0.0-87.0"},{"src":["ce/198433_ce.png","ours/198433_ours.png","gl/198433_gl.png"],"rank_data":[2,0,1],"rank_result":["ours/198433_ours.png","gl/198433_gl.png","ce/198433_ce.png"],"rt":5297,"trial_type":"image-rank","trial_index":88,"time_elapsed":879980,"internal_node_id":"0.0-88.0"},{"src":["ours/066956_ours.png","ce/066956_ce.png","gl/066956_gl.png"],"rank_data":[0,1,2],"rank_result":["ours/066956_ours.png","ce/066956_ce.png","gl/066956_gl.png"],"rt":4998,"trial_type":"image-rank","trial_index":89,"time_elapsed":884978,"internal_node_id":"0.0-89.0"},{"src":["ce/035625_ce.png","ours/035625_ours.png","gl/035625_gl.png"],"rank_data":[1,0,2],"rank_result":["ours/035625_ours.png","ce/035625_ce.png","gl/035625_gl.png"],"rt":7233,"trial_type":"image-rank","trial_index":90,"time_elapsed":892212,"internal_node_id":"0.0-90.0"},{"src":["ours/071772_ours.png","gl/071772_gl.png","ce/071772_ce.png"],"rank_data":[0,1,2],"rank_result":["ours/071772_ours.png","gl/071772_gl.png","ce/071772_ce.png"],"rt":3923,"trial_type":"image-rank","trial_index":91,"time_elapsed":896136,"internal_node_id":"0.0-91.0"},{"src":["ours/098668_ours.png","ce/098668_ce.png","gl/098668_gl.png"],"rank_data":[0,1,2],"rank_result":["ours/098668_ours.png","ce/098668_ce.png","gl/098668_gl.png"],"rt":5719,"trial_type":"image-rank","trial_index":92,"time_elapsed":901855,"internal_node_id":"0.0-92.0"},{"src":["ce/180329_ce.png","gl/180329_gl.png","ours/180329_ours.png"],"rank_data":[1,2,0],"rank_result":["ours/180329_ours.png","ce/180329_ce.png","gl/180329_gl.png"],"rt":14497,"trial_type":"image-rank","trial_index":93,"time_elapsed":916354,"internal_node_id":"0.0-93.0"},{"src":["gl/170333_gl.png","ours/170333_ours.png","ce/170333_ce.png"],"rank_data":[2,0,1],"rank_result":["ours/170333_ours.png","ce/170333_ce.png","gl/170333_gl.png"],"rt":31064,"trial_type":"image-rank","trial_index":94,"time_elapsed":947419,"internal_node_id":"0.0-94.0"},{"src":["ours/015865_ours.png","gl/015865_gl.png","ce/015865_ce.png"],"rank_data":[0,2,1],"rank_result":["ours/015865_ours.png","ce/015865_ce.png","gl/015865_gl.png"],"rt":4354,"trial_type":"image-rank","trial_index":95,"time_elapsed":951773,"internal_node_id":"0.0-95.0"},{"src":["ours/029147_ours.png","ce/029147_ce.png","gl/029147_gl.png"],"rank_data":[0,1,2],"rank_result":["ours/029147_ours.png","ce/029147_ce.png","gl/029147_gl.png"],"rt":5290,"trial_type":"image-rank","trial_index":96,"time_elapsed":957065,"internal_node_id":"0.0-96.0"},{"src":["gl/055454_gl.png","ce/055454_ce.png","ours/055454_ours.png"],"rank_data":[2,1,0],"rank_result":["ours/055454_ours.png","ce/055454_ce.png","gl/055454_gl.png"],"rt":5137,"trial_type":"image-rank","trial_index":97,"time_elapsed":962206,"internal_node_id":"0.0-97.0"},{"src":["ce/149130_ce.png","gl/149130_gl.png","ours/149130_ours.png"],"rank_data":[1,2,0],"rank_result":["ours/149130_ours.png","ce/149130_ce.png","gl/149130_gl.png"],"rt":6324,"trial_type":"image-rank","trial_index":98,"time_elapsed":968531,"internal_node_id":"0.0-98.0"},{"src":["ce/048358_ce.png","ours/048358_ours.png","gl/048358_gl.png"],"rank_data":[1,0,2],"rank_result":["ours/048358_ours.png","ce/048358_ce.png","gl/048358_gl.png"],"rt":4535,"trial_type":"image-rank","trial_index":99,"time_elapsed":973067,"internal_node_id":"0.0-99.0"},{"src":["ours/056914_ours.png","ce/056914_ce.png","gl/056914_gl.png"],"rank_data":[0,2,1],"rank_result":["ours/056914_ours.png","gl/056914_gl.png","ce/056914_ce.png"],"rt":7334,"trial_type":"image-rank","trial_index":100,"time_elapsed":980401,"internal_node_id":"0.0-100.0"},{"src":["gl/097973_gl.png","ce/097973_ce.png","ours/097973_ours.png"],"rank_data":[1,2,0],"rank_result":["ours/097973_ours.png","gl/097973_gl.png","ce/097973_ce.png"],"rt":7848,"trial_type":"image-rank","trial_index":101,"time_elapsed":988251,"internal_node_id":"0.0-101.0"},{"src":["ce/156643_ce.png","gl/156643_gl.png","ours/156643_ours.png"],"rank_data":[1,2,0],"rank_result":["ours/156643_ours.png","ce/156643_ce.png","gl/156643_gl.png"],"rt":4718,"trial_type":"image-rank","trial_index":102,"time_elapsed":992970,"internal_node_id":"0.0-102.0"},{"rt":24944,"responses":"{\"Q0\":\"Brian Clee\"}","trial_type":"survey-text","trial_index":103,"time_elapsed":1017918,"internal_node_id":"0.0-103.0"},{"rt":11467,"responses":"{\"Q0\":\"24\"}","trial_type":"survey-text","trial_index":104,"time_elapsed":1029386,"internal_node_id":"0.0-104.0"},{"rt":2122,"stimulus":"<div style=\"font-size:15px;\">You have reached the end of the experiment! Press any key to finish.</div>","key_press":32,"trial_type":"html-keyboard-response","trial_index":105,"time_elapsed":1031509,"internal_node_id":"0.0-105.0"}]