[
  {
    "rt": 3774,
    "stimulus": "Welcome to the experiment. Press any key to begin.",
    "key_press": 32,
    "trial_type": "html-keyboard-response",
    "trial_index": 0,
    "time_elapsed": 3776,
    "internal_node_id": "0.0-0.0"
  },
  {
    "rt": 24290,
    "stimulus": "<p>In this experiment, three images of people will appear in the center of the screen.</p><p>Your task is to rank these images based on how <strong>real</strong> you think they are.<p>The ranking level is between 1 to 3, with <strong>1</strong> representing the most real one and <strong>3</strong> the fakest one.</p><p>The time to rank is not limited. When you finish ranking, click the <strong>Continue</strong> button to continue.</p>",
    "key_press": 39,
    "trial_type": "html-keyboard-response",
    "trial_index": 1,
    "time_elapsed": 28067,
    "internal_node_id": "0.0-1.0"
  },
  {
    "rt": null,
    "stimulus": "<div style=\"font-size:60px;\"></div>",
    "key_press": null,
    "label": "fixation",
    "trial_type": "html-keyboard-response",
    "trial_index": 2,
    "time_elapsed": 29068,
    "internal_node_id": "0.0-2.0"
  },
  {
    "src": [
      "ours/129684_ours.png",
      "gl/129684_gl.png",
      "ce/129684_ce.png"
    ],
    "rank_data": [
      0,
      2,
      1
    ],
    "rank_result": [
      "ours/129684_ours.png",
      "ce/129684_ce.png",
      "gl/129684_gl.png"
    ],
    "rt": 8876,
    "trial_type": "image-rank",
    "trial_index": 3,
    "time_elapsed": 37945,
    "internal_node_id": "0.0-3.0"
  },
  {
    "src": [
      "gl/178081_gl.png",
      "ce/178081_ce.png",
      "ours/178081_ours.png"
    ],
    "rank_data": [
      2,
      1,
      0
    ],
    "rank_result": [
      "ours/178081_ours.png",
      "ce/178081_ce.png",
      "gl/178081_gl.png"
    ],
    "rt": 15097,
    "trial_type": "image-rank",
    "trial_index": 4,
    "time_elapsed": 53042,
    "internal_node_id": "0.0-4.0"
  },
  {
    "src": [
      "gl/160489_gl.png",
      "ours/160489_ours.png",
      "ce/160489_ce.png"
    ],
    "rank_data": [
      2,
      1,
      0
    ],
    "rank_result": [
      "ce/160489_ce.png",
      "ours/160489_ours.png",
      "gl/160489_gl.png"
    ],
    "rt": 7201,
    "trial_type": "image-rank",
    "trial_index": 5,
    "time_elapsed": 60243,
    "internal_node_id": "0.0-5.0"
  },
  {
    "src": [
      "ours/173033_ours.png",
      "gl/173033_gl.png",
      "ce/173033_ce.png"
    ],
    "rank_data": [
      0,
      1,
      2
    ],
    "rank_result": [
      "ours/173033_ours.png",
      "gl/173033_gl.png",
      "ce/173033_ce.png"
    ],
    "rt": 9009,
    "trial_type": "image-rank",
    "trial_index": 6,
    "time_elapsed": 69252,
    "internal_node_id": "0.0-6.0"
  },
  {
    "src": [
      "ce/048969_ce.png",
      "gl/048969_gl.png",
      "ours/048969_ours.png"
    ],
    "rank_data": [
      1,
      2,
      0
    ],
    "rank_result": [
      "ours/048969_ours.png",
      "ce/048969_ce.png",
      "gl/048969_gl.png"
    ],
    "rt": 25317,
    "trial_type": "image-rank",
    "trial_index": 7,
    "time_elapsed": 94569,
    "internal_node_id": "0.0-7.0"
  },
  {
    "src": [
      "ce/100942_ce.png",
      "gl/100942_gl.png",
      "ours/100942_ours.png"
    ],
    "rank_data": [
      1,
      2,
      0
    ],
    "rank_result": [
      "ours/100942_ours.png",
      "ce/100942_ce.png",
      "gl/100942_gl.png"
    ],
    "rt": 13985,
    "trial_type": "image-rank",
    "trial_index": 8,
    "time_elapsed": 108555,
    "internal_node_id": "0.0-8.0"
  },
  {
    "src": [
      "gl/121274_gl.png",
      "ce/121274_ce.png",
      "ours/121274_ours.png"
    ],
    "rank_data": [
      2,
      1,
      0
    ],
    "rank_result": [
      "ours/121274_ours.png",
      "ce/121274_ce.png",
      "gl/121274_gl.png"
    ],
    "rt": 6254,
    "trial_type": "image-rank",
    "trial_index": 9,
    "time_elapsed": 114810,
    "internal_node_id": "0.0-9.0"
  },
  {
    "src": [
      "ce/183536_ce.png",
      "ours/183536_ours.png",
      "gl/183536_gl.png"
    ],
    "rank_data": [
      1,
      0,
      2
    ],
    "rank_result": [
      "ours/183536_ours.png",
      "ce/183536_ce.png",
      "gl/183536_gl.png"
    ],
    "rt": 17298,
    "trial_type": "image-rank",
    "trial_index": 10,
    "time_elapsed": 132109,
    "internal_node_id": "0.0-10.0"
  },
  {
    "src": [
      "gl/116483_gl.png",
      "ce/116483_ce.png",
      "ours/116483_ours.png"
    ],
    "rank_data": [
      2,
      1,
      0
    ],
    "rank_result": [
      "ours/116483_ours.png",
      "ce/116483_ce.png",
      "gl/116483_gl.png"
    ],
    "rt": 35380,
    "trial_type": "image-rank",
    "trial_index": 11,
    "time_elapsed": 167490,
    "internal_node_id": "0.0-11.0"
  },
  {
    "src": [
      "gl/108253_gl.png",
      "ours/108253_ours.png",
      "ce/108253_ce.png"
    ],
    "rank_data": [
      2,
      1,
      0
    ],
    "rank_result": [
      "ce/108253_ce.png",
      "ours/108253_ours.png",
      "gl/108253_gl.png"
    ],
    "rt": 28091,
    "trial_type": "image-rank",
    "trial_index": 12,
    "time_elapsed": 195581,
    "internal_node_id": "0.0-12.0"
  },
  {
    "src": [
      "ours/007973_ours.png",
      "ce/007973_ce.png",
      "gl/007973_gl.png"
    ],
    "rank_data": [
      0,
      2,
      1
    ],
    "rank_result": [
      "ours/007973_ours.png",
      "gl/007973_gl.png",
      "ce/007973_ce.png"
    ],
    "rt": 62503,
    "trial_type": "image-rank",
    "trial_index": 13,
    "time_elapsed": 258085,
    "internal_node_id": "0.0-13.0"
  },
  {
    "src": [
      "ours/184168_ours.png",
      "ce/184168_ce.png",
      "gl/184168_gl.png"
    ],
    "rank_data": [
      0,
      1,
      2
    ],
    "rank_result": [
      "ours/184168_ours.png",
      "ce/184168_ce.png",
      "gl/184168_gl.png"
    ],
    "rt": 13002,
    "trial_type": "image-rank",
    "trial_index": 14,
    "time_elapsed": 271087,
    "internal_node_id": "0.0-14.0"
  },
  {
    "src": [
      "gl/029148_gl.png",
      "ours/029148_ours.png",
      "ce/029148_ce.png"
    ],
    "rank_data": [
      2,
      1,
      0
    ],
    "rank_result": [
      "ce/029148_ce.png",
      "ours/029148_ours.png",
      "gl/029148_gl.png"
    ],
    "rt": 8961,
    "trial_type": "image-rank",
    "trial_index": 15,
    "time_elapsed": 280048,
    "internal_node_id": "0.0-15.0"
  },
  {
    "src": [
      "gl/003153_gl.png",
      "ours/003153_ours.png",
      "ce/003153_ce.png"
    ],
    "rank_data": [
      2,
      0,
      1
    ],
    "rank_result": [
      "ours/003153_ours.png",
      "ce/003153_ce.png",
      "gl/003153_gl.png"
    ],
    "rt": 13514,
    "trial_type": "image-rank",
    "trial_index": 16,
    "time_elapsed": 293562,
    "internal_node_id": "0.0-16.0"
  },
  {
    "src": [
      "ce/077385_ce.png",
      "ours/077385_ours.png",
      "gl/077385_gl.png"
    ],
    "rank_data": [
      1,
      0,
      2
    ],
    "rank_result": [
      "ours/077385_ours.png",
      "ce/077385_ce.png",
      "gl/077385_gl.png"
    ],
    "rt": 10065,
    "trial_type": "image-rank",
    "trial_index": 17,
    "time_elapsed": 303628,
    "internal_node_id": "0.0-17.0"
  },
  {
    "src": [
      "ours/016260_ours.png",
      "gl/016260_gl.png",
      "ce/016260_ce.png"
    ],
    "rank_data": [
      0,
      2,
      1
    ],
    "rank_result": [
      "ours/016260_ours.png",
      "ce/016260_ce.png",
      "gl/016260_gl.png"
    ],
    "rt": 19843,
    "trial_type": "image-rank",
    "trial_index": 18,
    "time_elapsed": 323471,
    "internal_node_id": "0.0-18.0"
  },
  {
    "src": [
      "ours/055891_ours.png",
      "gl/055891_gl.png",
      "ce/055891_ce.png"
    ],
    "rank_data": [
      0,
      1,
      2
    ],
    "rank_result": [
      "ours/055891_ours.png",
      "gl/055891_gl.png",
      "ce/055891_ce.png"
    ],
    "rt": 10472,
    "trial_type": "image-rank",
    "trial_index": 19,
    "time_elapsed": 333944,
    "internal_node_id": "0.0-19.0"
  },
  {
    "src": [
      "gl/020347_gl.png",
      "ce/020347_ce.png",
      "ours/020347_ours.png"
    ],
    "rank_data": [
      2,
      0,
      1
    ],
    "rank_result": [
      "ce/020347_ce.png",
      "ours/020347_ours.png",
      "gl/020347_gl.png"
    ],
    "rt": 31251,
    "trial_type": "image-rank",
    "trial_index": 20,
    "time_elapsed": 365195,
    "internal_node_id": "0.0-20.0"
  },
  {
    "src": [
      "ours/033879_ours.png",
      "gl/033879_gl.png",
      "ce/033879_ce.png"
    ],
    "rank_data": [
      0,
      2,
      1
    ],
    "rank_result": [
      "ours/033879_ours.png",
      "ce/033879_ce.png",
      "gl/033879_gl.png"
    ],
    "rt": 11937,
    "trial_type": "image-rank",
    "trial_index": 21,
    "time_elapsed": 377133,
    "internal_node_id": "0.0-21.0"
  },
  {
    "src": [
      "ce/163326_ce.png",
      "gl/163326_gl.png",
      "ours/163326_ours.png"
    ],
    "rank_data": [
      1,
      2,
      0
    ],
    "rank_result": [
      "ours/163326_ours.png",
      "ce/163326_ce.png",
      "gl/163326_gl.png"
    ],
    "rt": 34556,
    "trial_type": "image-rank",
    "trial_index": 22,
    "time_elapsed": 411689,
    "internal_node_id": "0.0-22.0"
  },
  {
    "src": [
      "ce/122959_ce.png",
      "gl/122959_gl.png",
      "ours/122959_ours.png"
    ],
    "rank_data": [
      1,
      2,
      0
    ],
    "rank_result": [
      "ours/122959_ours.png",
      "ce/122959_ce.png",
      "gl/122959_gl.png"
    ],
    "rt": 19204,
    "trial_type": "image-rank",
    "trial_index": 23,
    "time_elapsed": 430893,
    "internal_node_id": "0.0-23.0"
  },
  {
    "src": [
      "gl/147605_gl.png",
      "ce/147605_ce.png",
      "ours/147605_ours.png"
    ],
    "rank_data": [
      1,
      0,
      2
    ],
    "rank_result": [
      "ce/147605_ce.png",
      "gl/147605_gl.png",
      "ours/147605_ours.png"
    ],
    "rt": 34669,
    "trial_type": "image-rank",
    "trial_index": 24,
    "time_elapsed": 465563,
    "internal_node_id": "0.0-24.0"
  },
  {
    "src": [
      "ours/119120_ours.png",
      "gl/119120_gl.png",
      "ce/119120_ce.png"
    ],
    "rank_data": [
      0,
      2,
      1
    ],
    "rank_result": [
      "ours/119120_ours.png",
      "ce/119120_ce.png",
      "gl/119120_gl.png"
    ],
    "rt": 56789,
    "trial_type": "image-rank",
    "trial_index": 25,
    "time_elapsed": 522352,
    "internal_node_id": "0.0-25.0"
  },
  {
    "src": [
      "ce/175747_ce.png",
      "gl/175747_gl.png",
      "ours/175747_ours.png"
    ],
    "rank_data": [
      2,
      1,
      0
    ],
    "rank_result": [
      "ours/175747_ours.png",
      "gl/175747_gl.png",
      "ce/175747_ce.png"
    ],
    "rt": 8849,
    "trial_type": "image-rank",
    "trial_index": 26,
    "time_elapsed": 531203,
    "internal_node_id": "0.0-26.0"
  },
  {
    "src": [
      "ce/184597_ce.png",
      "ours/184597_ours.png",
      "gl/184597_gl.png"
    ],
    "rank_data": [
      2,
      0,
      1
    ],
    "rank_result": [
      "ours/184597_ours.png",
      "gl/184597_gl.png",
      "ce/184597_ce.png"
    ],
    "rt": 15305,
    "trial_type": "image-rank",
    "trial_index": 27,
    "time_elapsed": 546509,
    "internal_node_id": "0.0-27.0"
  },
  {
    "src": [
      "ce/118606_ce.png",
      "ours/118606_ours.png",
      "gl/118606_gl.png"
    ],
    "rank_data": [
      1,
      0,
      2
    ],
    "rank_result": [
      "ours/118606_ours.png",
      "ce/118606_ce.png",
      "gl/118606_gl.png"
    ],
    "rt": 16441,
    "trial_type": "image-rank",
    "trial_index": 28,
    "time_elapsed": 562950,
    "internal_node_id": "0.0-28.0"
  },
  {
    "src": [
      "gl/094740_gl.png",
      "ours/094740_ours.png",
      "ce/094740_ce.png"
    ],
    "rank_data": [
      0,
      1,
      2
    ],
    "rank_result": [
      "gl/094740_gl.png",
      "ours/094740_ours.png",
      "ce/094740_ce.png"
    ],
    "rt": 34868,
    "trial_type": "image-rank",
    "trial_index": 29,
    "time_elapsed": 597819,
    "internal_node_id": "0.0-29.0"
  },
  {
    "src": [
      "ce/159821_ce.png",
      "gl/159821_gl.png",
      "ours/159821_ours.png"
    ],
    "rank_data": [
      0,
      2,
      1
    ],
    "rank_result": [
      "ce/159821_ce.png",
      "ours/159821_ours.png",
      "gl/159821_gl.png"
    ],
    "rt": 42212,
    "trial_type": "image-rank",
    "trial_index": 30,
    "time_elapsed": 640032,
    "internal_node_id": "0.0-30.0"
  },
  {
    "src": [
      "ce/014177_ce.png",
      "gl/014177_gl.png",
      "ours/014177_ours.png"
    ],
    "rank_data": [
      2,
      1,
      0
    ],
    "rank_result": [
      "ours/014177_ours.png",
      "gl/014177_gl.png",
      "ce/014177_ce.png"
    ],
    "rt": 38733,
    "trial_type": "image-rank",
    "trial_index": 31,
    "time_elapsed": 678765,
    "internal_node_id": "0.0-31.0"
  },
  {
    "src": [
      "gl/092362_gl.png",
      "ce/092362_ce.png",
      "ours/092362_ours.png"
    ],
    "rank_data": [
      2,
      1,
      0
    ],
    "rank_result": [
      "ours/092362_ours.png",
      "ce/092362_ce.png",
      "gl/092362_gl.png"
    ],
    "rt": 14962,
    "trial_type": "image-rank",
    "trial_index": 32,
    "time_elapsed": 693727,
    "internal_node_id": "0.0-32.0"
  },
  {
    "src": [
      "gl/190237_gl.png",
      "ours/190237_ours.png",
      "ce/190237_ce.png"
    ],
    "rank_data": [
      2,
      0,
      1
    ],
    "rank_result": [
      "ours/190237_ours.png",
      "ce/190237_ce.png",
      "gl/190237_gl.png"
    ],
    "rt": 8674,
    "trial_type": "image-rank",
    "trial_index": 33,
    "time_elapsed": 702401,
    "internal_node_id": "0.0-33.0"
  },
  {
    "src": [
      "gl/154611_gl.png",
      "ce/154611_ce.png",
      "ours/154611_ours.png"
    ],
    "rank_data": [
      2,
      0,
      1
    ],
    "rank_result": [
      "ce/154611_ce.png",
      "ours/154611_ours.png",
      "gl/154611_gl.png"
    ],
    "rt": 29532,
    "trial_type": "image-rank",
    "trial_index": 34,
    "time_elapsed": 731933,
    "internal_node_id": "0.0-34.0"
  },
  {
    "src": [
      "gl/010109_gl.png",
      "ours/010109_ours.png",
      "ce/010109_ce.png"
    ],
    "rank_data": [
      2,
      0,
      1
    ],
    "rank_result": [
      "ours/010109_ours.png",
      "ce/010109_ce.png",
      "gl/010109_gl.png"
    ],
    "rt": 8519,
    "trial_type": "image-rank",
    "trial_index": 35,
    "time_elapsed": 740453,
    "internal_node_id": "0.0-35.0"
  },
  {
    "src": [
      "gl/010772_gl.png",
      "ours/010772_ours.png",
      "ce/010772_ce.png"
    ],
    "rank_data": [
      2,
      0,
      1
    ],
    "rank_result": [
      "ours/010772_ours.png",
      "ce/010772_ce.png",
      "gl/010772_gl.png"
    ],
    "rt": 7401,
    "trial_type": "image-rank",
    "trial_index": 36,
    "time_elapsed": 747855,
    "internal_node_id": "0.0-36.0"
  },
  {
    "src": [
      "ce/101445_ce.png",
      "gl/101445_gl.png",
      "ours/101445_ours.png"
    ],
    "rank_data": [
      2,
      1,
      0
    ],
    "rank_result": [
      "ours/101445_ours.png",
      "gl/101445_gl.png",
      "ce/101445_ce.png"
    ],
    "rt": 12480,
    "trial_type": "image-rank",
    "trial_index": 37,
    "time_elapsed": 760336,
    "internal_node_id": "0.0-37.0"
  },
  {
    "src": [
      "ce/042948_ce.png",
      "ours/042948_ours.png",
      "gl/042948_gl.png"
    ],
    "rank_data": [
      1,
      0,
      2
    ],
    "rank_result": [
      "ours/042948_ours.png",
      "ce/042948_ce.png",
      "gl/042948_gl.png"
    ],
    "rt": 12297,
    "trial_type": "image-rank",
    "trial_index": 38,
    "time_elapsed": 772633,
    "internal_node_id": "0.0-38.0"
  },
  {
    "src": [
      "gl/089400_gl.png",
      "ce/089400_ce.png",
      "ours/089400_ours.png"
    ],
    "rank_data": [
      2,
      1,
      0
    ],
    "rank_result": [
      "ours/089400_ours.png",
      "ce/089400_ce.png",
      "gl/089400_gl.png"
    ],
    "rt": 21021,
    "trial_type": "image-rank",
    "trial_index": 39,
    "time_elapsed": 793654,
    "internal_node_id": "0.0-39.0"
  },
  {
    "src": [
      "ours/096270_ours.png",
      "gl/096270_gl.png",
      "ce/096270_ce.png"
    ],
    "rank_data": [
      0,
      2,
      1
    ],
    "rank_result": [
      "ours/096270_ours.png",
      "ce/096270_ce.png",
      "gl/096270_gl.png"
    ],
    "rt": 16617,
    "trial_type": "image-rank",
    "trial_index": 40,
    "time_elapsed": 810271,
    "internal_node_id": "0.0-40.0"
  },
  {
    "src": [
      "ce/156751_ce.png",
      "ours/156751_ours.png",
      "gl/156751_gl.png"
    ],
    "rank_data": [
      1,
      2,
      0
    ],
    "rank_result": [
      "gl/156751_gl.png",
      "ce/156751_ce.png",
      "ours/156751_ours.png"
    ],
    "rt": 58595,
    "trial_type": "image-rank",
    "trial_index": 41,
    "time_elapsed": 868867,
    "internal_node_id": "0.0-41.0"
  },
  {
    "src": [
      "ours/145274_ours.png",
      "ce/145274_ce.png",
      "gl/145274_gl.png"
    ],
    "rank_data": [
      0,
      1,
      2
    ],
    "rank_result": [
      "ours/145274_ours.png",
      "ce/145274_ce.png",
      "gl/145274_gl.png"
    ],
    "rt": 10074,
    "trial_type": "image-rank",
    "trial_index": 42,
    "time_elapsed": 878942,
    "internal_node_id": "0.0-42.0"
  },
  {
    "src": [
      "ce/035433_ce.png",
      "gl/035433_gl.png",
      "ours/035433_ours.png"
    ],
    "rank_data": [
      1,
      2,
      0
    ],
    "rank_result": [
      "ours/035433_ours.png",
      "ce/035433_ce.png",
      "gl/035433_gl.png"
    ],
    "rt": 22873,
    "trial_type": "image-rank",
    "trial_index": 43,
    "time_elapsed": 901815,
    "internal_node_id": "0.0-43.0"
  },
  {
    "src": [
      "gl/063563_gl.png",
      "ours/063563_ours.png",
      "ce/063563_ce.png"
    ],
    "rank_data": [
      2,
      0,
      1
    ],
    "rank_result": [
      "ours/063563_ours.png",
      "ce/063563_ce.png",
      "gl/063563_gl.png"
    ],
    "rt": 6419,
    "trial_type": "image-rank",
    "trial_index": 44,
    "time_elapsed": 908235,
    "internal_node_id": "0.0-44.0"
  },
  {
    "src": [
      "ours/161142_ours.png",
      "ce/161142_ce.png",
      "gl/161142_gl.png"
    ],
    "rank_data": [
      0,
      1,
      2
    ],
    "rank_result": [
      "ours/161142_ours.png",
      "ce/161142_ce.png",
      "gl/161142_gl.png"
    ],
    "rt": 27630,
    "trial_type": "image-rank",
    "trial_index": 45,
    "time_elapsed": 935865,
    "internal_node_id": "0.0-45.0"
  },
  {
    "src": [
      "gl/042917_gl.png",
      "ours/042917_ours.png",
      "ce/042917_ce.png"
    ],
    "rank_data": [
      2,
      0,
      1
    ],
    "rank_result": [
      "ours/042917_ours.png",
      "ce/042917_ce.png",
      "gl/042917_gl.png"
    ],
    "rt": 15779,
    "trial_type": "image-rank",
    "trial_index": 46,
    "time_elapsed": 951645,
    "internal_node_id": "0.0-46.0"
  },
  {
    "src": [
      "gl/148830_gl.png",
      "ce/148830_ce.png",
      "ours/148830_ours.png"
    ],
    "rank_data": [
      2,
      1,
      0
    ],
    "rank_result": [
      "ours/148830_ours.png",
      "ce/148830_ce.png",
      "gl/148830_gl.png"
    ],
    "rt": 13082,
    "trial_type": "image-rank",
    "trial_index": 47,
    "time_elapsed": 964727,
    "internal_node_id": "0.0-47.0"
  },
  {
    "src": [
      "ce/172235_ce.png",
      "gl/172235_gl.png",
      "ours/172235_ours.png"
    ],
    "rank_data": [
      2,
      1,
      0
    ],
    "rank_result": [
      "ours/172235_ours.png",
      "gl/172235_gl.png",
      "ce/172235_ce.png"
    ],
    "rt": 23091,
    "trial_type": "image-rank",
    "trial_index": 48,
    "time_elapsed": 987818,
    "internal_node_id": "0.0-48.0"
  },
  {
    "src": [
      "ce/125269_ce.png",
      "gl/125269_gl.png",
      "ours/125269_ours.png"
    ],
    "rank_data": [
      2,
      1,
      0
    ],
    "rank_result": [
      "ours/125269_ours.png",
      "gl/125269_gl.png",
      "ce/125269_ce.png"
    ],
    "rt": 25947,
    "trial_type": "image-rank",
    "trial_index": 49,
    "time_elapsed": 1013766,
    "internal_node_id": "0.0-49.0"
  },
  {
    "src": [
      "ce/142437_ce.png",
      "gl/142437_gl.png",
      "ours/142437_ours.png"
    ],
    "rank_data": [
      2,
      1,
      0
    ],
    "rank_result": [
      "ours/142437_ours.png",
      "gl/142437_gl.png",
      "ce/142437_ce.png"
    ],
    "rt": 6816,
    "trial_type": "image-rank",
    "trial_index": 50,
    "time_elapsed": 1020582,
    "internal_node_id": "0.0-50.0"
  },
  {
    "src": [
      "gl/000179_gl.png",
      "ours/000179_ours.png",
      "ce/000179_ce.png"
    ],
    "rank_data": [
      2,
      0,
      1
    ],
    "rank_result": [
      "ours/000179_ours.png",
      "ce/000179_ce.png",
      "gl/000179_gl.png"
    ],
    "rt": 19364,
    "trial_type": "image-rank",
    "trial_index": 51,
    "time_elapsed": 1039947,
    "internal_node_id": "0.0-51.0"
  },
  {
    "src": [
      "gl/145043_gl.png",
      "ours/145043_ours.png",
      "ce/145043_ce.png"
    ],
    "rank_data": [
      2,
      0,
      1
    ],
    "rank_result": [
      "ours/145043_ours.png",
      "ce/145043_ce.png",
      "gl/145043_gl.png"
    ],
    "rt": 8616,
    "trial_type": "image-rank",
    "trial_index": 52,
    "time_elapsed": 1048564,
    "internal_node_id": "0.0-52.0"
  },
  {
    "src": [
      "ce/136341_ce.png",
      "ours/136341_ours.png",
      "gl/136341_gl.png"
    ],
    "rank_data": [
      2,
      0,
      1
    ],
    "rank_result": [
      "ours/136341_ours.png",
      "gl/136341_gl.png",
      "ce/136341_ce.png"
    ],
    "rt": 9396,
    "trial_type": "image-rank",
    "trial_index": 53,
    "time_elapsed": 1057960,
    "internal_node_id": "0.0-53.0"
  },
  {
    "src": [
      "gl/035175_gl.png",
      "ce/035175_ce.png",
      "ours/035175_ours.png"
    ],
    "rank_data": [
      1,
      2,
      0
    ],
    "rank_result": [
      "ours/035175_ours.png",
      "gl/035175_gl.png",
      "ce/035175_ce.png"
    ],
    "rt": 27083,
    "trial_type": "image-rank",
    "trial_index": 54,
    "time_elapsed": 1085043,
    "internal_node_id": "0.0-54.0"
  },
  {
    "src": [
      "ours/137139_ours.png",
      "ce/137139_ce.png",
      "gl/137139_gl.png"
    ],
    "rank_data": [
      1,
      2,
      0
    ],
    "rank_result": [
      "gl/137139_gl.png",
      "ours/137139_ours.png",
      "ce/137139_ce.png"
    ],
    "rt": 6562,
    "trial_type": "image-rank",
    "trial_index": 55,
    "time_elapsed": 1091605,
    "internal_node_id": "0.0-55.0"
  },
  {
    "src": [
      "gl/006912_gl.png",
      "ours/006912_ours.png",
      "ce/006912_ce.png"
    ],
    "rank_data": [
      1,
      0,
      2
    ],
    "rank_result": [
      "ours/006912_ours.png",
      "gl/006912_gl.png",
      "ce/006912_ce.png"
    ],
    "rt": 5688,
    "trial_type": "image-rank",
    "trial_index": 56,
    "time_elapsed": 1097293,
    "internal_node_id": "0.0-56.0"
  },
  {
    "src": [
      "gl/150040_gl.png",
      "ce/150040_ce.png",
      "ours/150040_ours.png"
    ],
    "rank_data": [
      2,
      0,
      1
    ],
    "rank_result": [
      "ce/150040_ce.png",
      "ours/150040_ours.png",
      "gl/150040_gl.png"
    ],
    "rt": 16046,
    "trial_type": "image-rank",
    "trial_index": 57,
    "time_elapsed": 1113339,
    "internal_node_id": "0.0-57.0"
  },
  {
    "src": [
      "ours/160350_ours.png",
      "ce/160350_ce.png",
      "gl/160350_gl.png"
    ],
    "rank_data": [
      0,
      1,
      2
    ],
    "rank_result": [
      "ours/160350_ours.png",
      "ce/160350_ce.png",
      "gl/160350_gl.png"
    ],
    "rt": 18033,
    "trial_type": "image-rank",
    "trial_index": 58,
    "time_elapsed": 1131373,
    "internal_node_id": "0.0-58.0"
  },
  {
    "src": [
      "ce/180115_ce.png",
      "gl/180115_gl.png",
      "ours/180115_ours.png"
    ],
    "rank_data": [
      1,
      2,
      0
    ],
    "rank_result": [
      "ours/180115_ours.png",
      "ce/180115_ce.png",
      "gl/180115_gl.png"
    ],
    "rt": 10675,
    "trial_type": "image-rank",
    "trial_index": 59,
    "time_elapsed": 1142049,
    "internal_node_id": "0.0-59.0"
  },
  {
    "src": [
      "ours/150266_ours.png",
      "gl/150266_gl.png",
      "ce/150266_ce.png"
    ],
    "rank_data": [
      1,
      2,
      0
    ],
    "rank_result": [
      "ce/150266_ce.png",
      "ours/150266_ours.png",
      "gl/150266_gl.png"
    ],
    "rt": 13424,
    "trial_type": "image-rank",
    "trial_index": 60,
    "time_elapsed": 1155474,
    "internal_node_id": "0.0-60.0"
  },
  {
    "src": [
      "ours/138841_ours.png",
      "gl/138841_gl.png",
      "ce/138841_ce.png"
    ],
    "rank_data": [
      0,
      2,
      1
    ],
    "rank_result": [
      "ours/138841_ours.png",
      "ce/138841_ce.png",
      "gl/138841_gl.png"
    ],
    "rt": 16610,
    "trial_type": "image-rank",
    "trial_index": 61,
    "time_elapsed": 1172084,
    "internal_node_id": "0.0-61.0"
  },
  {
    "src": [
      "ours/200209_ours.png",
      "gl/200209_gl.png",
      "ce/200209_ce.png"
    ],
    "rank_data": [
      0,
      1,
      2
    ],
    "rank_result": [
      "ours/200209_ours.png",
      "gl/200209_gl.png",
      "ce/200209_ce.png"
    ],
    "rt": 25097,
    "trial_type": "image-rank",
    "trial_index": 62,
    "time_elapsed": 1197181,
    "internal_node_id": "0.0-62.0"
  },
  {
    "src": [
      "ce/169638_ce.png",
      "gl/169638_gl.png",
      "ours/169638_ours.png"
    ],
    "rank_data": [
      1,
      2,
      0
    ],
    "rank_result": [
      "ours/169638_ours.png",
      "ce/169638_ce.png",
      "gl/169638_gl.png"
    ],
    "rt": 4985,
    "trial_type": "image-rank",
    "trial_index": 63,
    "time_elapsed": 1202166,
    "internal_node_id": "0.0-63.0"
  },
  {
    "src": [
      "gl/180855_gl.png",
      "ours/180855_ours.png",
      "ce/180855_ce.png"
    ],
    "rank_data": [
      2,
      1,
      0
    ],
    "rank_result": [
      "ce/180855_ce.png",
      "ours/180855_ours.png",
      "gl/180855_gl.png"
    ],
    "rt": 8047,
    "trial_type": "image-rank",
    "trial_index": 64,
    "time_elapsed": 1210213,
    "internal_node_id": "0.0-64.0"
  },
  {
    "src": [
      "gl/020848_gl.png",
      "ours/020848_ours.png",
      "ce/020848_ce.png"
    ],
    "rank_data": [
      2,
      0,
      1
    ],
    "rank_result": [
      "ours/020848_ours.png",
      "ce/020848_ce.png",
      "gl/020848_gl.png"
    ],
    "rt": 17784,
    "trial_type": "image-rank",
    "trial_index": 65,
    "time_elapsed": 1227997,
    "internal_node_id": "0.0-65.0"
  },
  {
    "src": [
      "ours/105018_ours.png",
      "ce/105018_ce.png",
      "gl/105018_gl.png"
    ],
    "rank_data": [
      1,
      0,
      2
    ],
    "rank_result": [
      "ce/105018_ce.png",
      "ours/105018_ours.png",
      "gl/105018_gl.png"
    ],
    "rt": 14198,
    "trial_type": "image-rank",
    "trial_index": 66,
    "time_elapsed": 1242196,
    "internal_node_id": "0.0-66.0"
  },
  {
    "src": [
      "ours/104595_ours.png",
      "gl/104595_gl.png",
      "ce/104595_ce.png"
    ],
    "rank_data": [
      1,
      2,
      0
    ],
    "rank_result": [
      "ce/104595_ce.png",
      "ours/104595_ours.png",
      "gl/104595_gl.png"
    ],
    "rt": 19809,
    "trial_type": "image-rank",
    "trial_index": 67,
    "time_elapsed": 1262006,
    "internal_node_id": "0.0-67.0"
  },
  {
    "src": [
      "ce/049392_ce.png",
      "ours/049392_ours.png",
      "gl/049392_gl.png"
    ],
    "rank_data": [
      1,
      0,
      2
    ],
    "rank_result": [
      "ours/049392_ours.png",
      "ce/049392_ce.png",
      "gl/049392_gl.png"
    ],
    "rt": 27588,
    "trial_type": "image-rank",
    "trial_index": 68,
    "time_elapsed": 1289594,
    "internal_node_id": "0.0-68.0"
  },
  {
    "src": [
      "gl/028746_gl.png",
      "ours/028746_ours.png",
      "ce/028746_ce.png"
    ],
    "rank_data": [
      1,
      0,
      2
    ],
    "rank_result": [
      "ours/028746_ours.png",
      "gl/028746_gl.png",
      "ce/028746_ce.png"
    ],
    "rt": 8432,
    "trial_type": "image-rank",
    "trial_index": 69,
    "time_elapsed": 1298028,
    "internal_node_id": "0.0-69.0"
  },
  {
    "src": [
      "ce/012753_ce.png",
      "ours/012753_ours.png",
      "gl/012753_gl.png"
    ],
    "rank_data": [
      1,
      0,
      2
    ],
    "rank_result": [
      "ours/012753_ours.png",
      "ce/012753_ce.png",
      "gl/012753_gl.png"
    ],
    "rt": 28726,
    "trial_type": "image-rank",
    "trial_index": 70,
    "time_elapsed": 1326755,
    "internal_node_id": "0.0-70.0"
  },
  {
    "src": [
      "ours/173889_ours.png",
      "ce/173889_ce.png",
      "gl/173889_gl.png"
    ],
    "rank_data": [
      0,
      1,
      2
    ],
    "rank_result": [
      "ours/173889_ours.png",
      "ce/173889_ce.png",
      "gl/173889_gl.png"
    ],
    "rt": 9873,
    "trial_type": "image-rank",
    "trial_index": 71,
    "time_elapsed": 1336628,
    "internal_node_id": "0.0-71.0"
  },
  {
    "src": [
      "ce/020625_ce.png",
      "ours/020625_ours.png",
      "gl/020625_gl.png"
    ],
    "rank_data": [
      2,
      1,
      0
    ],
    "rank_result": [
      "gl/020625_gl.png",
      "ours/020625_ours.png",
      "ce/020625_ce.png"
    ],
    "rt": 11306,
    "trial_type": "image-rank",
    "trial_index": 72,
    "time_elapsed": 1347936,
    "internal_node_id": "0.0-72.0"
  },
  {
    "src": [
      "gl/140651_gl.png",
      "ce/140651_ce.png",
      "ours/140651_ours.png"
    ],
    "rank_data": [
      2,
      1,
      0
    ],
    "rank_result": [
      "ours/140651_ours.png",
      "ce/140651_ce.png",
      "gl/140651_gl.png"
    ],
    "rt": 8391,
    "trial_type": "image-rank",
    "trial_index": 73,
    "time_elapsed": 1356327,
    "internal_node_id": "0.0-73.0"
  },
  {
    "src": [
      "gl/052638_gl.png",
      "ours/052638_ours.png",
      "ce/052638_ce.png"
    ],
    "rank_data": [
      0,
      1,
      2
    ],
    "rank_result": [
      "gl/052638_gl.png",
      "ours/052638_ours.png",
      "ce/052638_ce.png"
    ],
    "rt": 9359,
    "trial_type": "image-rank",
    "trial_index": 74,
    "time_elapsed": 1365686,
    "internal_node_id": "0.0-74.0"
  },
  {
    "src": [
      "gl/093573_gl.png",
      "ours/093573_ours.png",
      "ce/093573_ce.png"
    ],
    "rank_data": [
      2,
      0,
      1
    ],
    "rank_result": [
      "ours/093573_ours.png",
      "ce/093573_ce.png",
      "gl/093573_gl.png"
    ],
    "rt": 10893,
    "trial_type": "image-rank",
    "trial_index": 75,
    "time_elapsed": 1376579,
    "internal_node_id": "0.0-75.0"
  },
  {
    "src": [
      "gl/167898_gl.png",
      "ce/167898_ce.png",
      "ours/167898_ours.png"
    ],
    "rank_data": [
      2,
      1,
      0
    ],
    "rank_result": [
      "ours/167898_ours.png",
      "ce/167898_ce.png",
      "gl/167898_gl.png"
    ],
    "rt": 19752,
    "trial_type": "image-rank",
    "trial_index": 76,
    "time_elapsed": 1396332,
    "internal_node_id": "0.0-76.0"
  },
  {
    "src": [
      "gl/141452_gl.png",
      "ours/141452_ours.png",
      "ce/141452_ce.png"
    ],
    "rank_data": [
      2,
      0,
      1
    ],
    "rank_result": [
      "ours/141452_ours.png",
      "ce/141452_ce.png",
      "gl/141452_gl.png"
    ],
    "rt": 8498,
    "trial_type": "image-rank",
    "trial_index": 77,
    "time_elapsed": 1404830,
    "internal_node_id": "0.0-77.0"
  },
  {
    "src": [
      "gl/097311_gl.png",
      "ours/097311_ours.png",
      "ce/097311_ce.png"
    ],
    "rank_data": [
      2,
      0,
      1
    ],
    "rank_result": [
      "ours/097311_ours.png",
      "ce/097311_ce.png",
      "gl/097311_gl.png"
    ],
    "rt": 9726,
    "trial_type": "image-rank",
    "trial_index": 78,
    "time_elapsed": 1414557,
    "internal_node_id": "0.0-78.0"
  },
  {
    "src": [
      "gl/091852_gl.png",
      "ce/091852_ce.png",
      "ours/091852_ours.png"
    ],
    "rank_data": [
      2,
      1,
      0
    ],
    "rank_result": [
      "ours/091852_ours.png",
      "ce/091852_ce.png",
      "gl/091852_gl.png"
    ],
    "rt": 10778,
    "trial_type": "image-rank",
    "trial_index": 79,
    "time_elapsed": 1425336,
    "internal_node_id": "0.0-79.0"
  },
  {
    "src": [
      "ce/055747_ce.png",
      "ours/055747_ours.png",
      "gl/055747_gl.png"
    ],
    "rank_data": [
      0,
      1,
      2
    ],
    "rank_result": [
      "ce/055747_ce.png",
      "ours/055747_ours.png",
      "gl/055747_gl.png"
    ],
    "rt": 8929,
    "trial_type": "image-rank",
    "trial_index": 80,
    "time_elapsed": 1434265,
    "internal_node_id": "0.0-80.0"
  },
  {
    "src": [
      "ours/192801_ours.png",
      "ce/192801_ce.png",
      "gl/192801_gl.png"
    ],
    "rank_data": [
      0,
      1,
      2
    ],
    "rank_result": [
      "ours/192801_ours.png",
      "ce/192801_ce.png",
      "gl/192801_gl.png"
    ],
    "rt": 6400,
    "trial_type": "image-rank",
    "trial_index": 81,
    "time_elapsed": 1440665,
    "internal_node_id": "0.0-81.0"
  },
  {
    "src": [
      "gl/178838_gl.png",
      "ours/178838_ours.png",
      "ce/178838_ce.png"
    ],
    "rank_data": [
      2,
      1,
      0
    ],
    "rank_result": [
      "ce/178838_ce.png",
      "ours/178838_ours.png",
      "gl/178838_gl.png"
    ],
    "rt": 14750,
    "trial_type": "image-rank",
    "trial_index": 82,
    "time_elapsed": 1455416,
    "internal_node_id": "0.0-82.0"
  },
  {
    "src": [
      "ours/148458_ours.png",
      "ce/148458_ce.png",
      "gl/148458_gl.png"
    ],
    "rank_data": [
      0,
      1,
      2
    ],
    "rank_result": [
      "ours/148458_ours.png",
      "ce/148458_ce.png",
      "gl/148458_gl.png"
    ],
    "rt": 8139,
    "trial_type": "image-rank",
    "trial_index": 83,
    "time_elapsed": 1463555,
    "internal_node_id": "0.0-83.0"
  },
  {
    "src": [
      "ours/135030_ours.png",
      "gl/135030_gl.png",
      "ce/135030_ce.png"
    ],
    "rank_data": [
      0,
      2,
      1
    ],
    "rank_result": [
      "ours/135030_ours.png",
      "ce/135030_ce.png",
      "gl/135030_gl.png"
    ],
    "rt": 12175,
    "trial_type": "image-rank",
    "trial_index": 84,
    "time_elapsed": 1475730,
    "internal_node_id": "0.0-84.0"
  },
  {
    "src": [
      "ce/176980_ce.png",
      "gl/176980_gl.png",
      "ours/176980_ours.png"
    ],
    "rank_data": [
      1,
      2,
      0
    ],
    "rank_result": [
      "ours/176980_ours.png",
      "ce/176980_ce.png",
      "gl/176980_gl.png"
    ],
    "rt": 9010,
    "trial_type": "image-rank",
    "trial_index": 85,
    "time_elapsed": 1484740,
    "internal_node_id": "0.0-85.0"
  },
  {
    "src": [
      "ours/010120_ours.png",
      "gl/010120_gl.png",
      "ce/010120_ce.png"
    ],
    "rank_data": [
      0,
      2,
      1
    ],
    "rank_result": [
      "ours/010120_ours.png",
      "ce/010120_ce.png",
      "gl/010120_gl.png"
    ],
    "rt": 15870,
    "trial_type": "image-rank",
    "trial_index": 86,
    "time_elapsed": 1500610,
    "internal_node_id": "0.0-86.0"
  },
  {
    "src": [
      "gl/005033_gl.png",
      "ours/005033_ours.png",
      "ce/005033_ce.png"
    ],
    "rank_data": [
      0,
      1,
      2
    ],
    "rank_result": [
      "gl/005033_gl.png",
      "ours/005033_ours.png",
      "ce/005033_ce.png"
    ],
    "rt": 19074,
    "trial_type": "image-rank",
    "trial_index": 87,
    "time_elapsed": 1519684,
    "internal_node_id": "0.0-87.0"
  },
  {
    "src": [
      "gl/016825_gl.png",
      "ours/016825_ours.png",
      "ce/016825_ce.png"
    ],
    "rank_data": [
      2,
      0,
      1
    ],
    "rank_result": [
      "ours/016825_ours.png",
      "ce/016825_ce.png",
      "gl/016825_gl.png"
    ],
    "rt": 9618,
    "trial_type": "image-rank",
    "trial_index": 88,
    "time_elapsed": 1529302,
    "internal_node_id": "0.0-88.0"
  },
  {
    "src": [
      "ours/156470_ours.png",
      "gl/156470_gl.png",
      "ce/156470_ce.png"
    ],
    "rank_data": [
      0,
      1,
      2
    ],
    "rank_result": [
      "ours/156470_ours.png",
      "gl/156470_gl.png",
      "ce/156470_ce.png"
    ],
    "rt": 9946,
    "trial_type": "image-rank",
    "trial_index": 89,
    "time_elapsed": 1539248,
    "internal_node_id": "0.0-89.0"
  },
  {
    "src": [
      "ce/003026_ce.png",
      "ours/003026_ours.png",
      "gl/003026_gl.png"
    ],
    "rank_data": [
      1,
      0,
      2
    ],
    "rank_result": [
      "ours/003026_ours.png",
      "ce/003026_ce.png",
      "gl/003026_gl.png"
    ],
    "rt": 10975,
    "trial_type": "image-rank",
    "trial_index": 90,
    "time_elapsed": 1550224,
    "internal_node_id": "0.0-90.0"
  },
  {
    "src": [
      "ours/021571_ours.png",
      "gl/021571_gl.png",
      "ce/021571_ce.png"
    ],
    "rank_data": [
      0,
      1,
      2
    ],
    "rank_result": [
      "ours/021571_ours.png",
      "gl/021571_gl.png",
      "ce/021571_ce.png"
    ],
    "rt": 7129,
    "trial_type": "image-rank",
    "trial_index": 91,
    "time_elapsed": 1557354,
    "internal_node_id": "0.0-91.0"
  },
  {
    "src": [
      "ce/135013_ce.png",
      "gl/135013_gl.png",
      "ours/135013_ours.png"
    ],
    "rank_data": [
      1,
      2,
      0
    ],
    "rank_result": [
      "ours/135013_ours.png",
      "ce/135013_ce.png",
      "gl/135013_gl.png"
    ],
    "rt": 9337,
    "trial_type": "image-rank",
    "trial_index": 92,
    "time_elapsed": 1566691,
    "internal_node_id": "0.0-92.0"
  },
  {
    "src": [
      "ce/159933_ce.png",
      "ours/159933_ours.png",
      "gl/159933_gl.png"
    ],
    "rank_data": [
      1,
      0,
      2
    ],
    "rank_result": [
      "ours/159933_ours.png",
      "ce/159933_ce.png",
      "gl/159933_gl.png"
    ],
    "rt": 6153,
    "trial_type": "image-rank",
    "trial_index": 93,
    "time_elapsed": 1572845,
    "internal_node_id": "0.0-93.0"
  },
  {
    "src": [
      "gl/015008_gl.png",
      "ours/015008_ours.png",
      "ce/015008_ce.png"
    ],
    "rank_data": [
      1,
      0,
      2
    ],
    "rank_result": [
      "ours/015008_ours.png",
      "gl/015008_gl.png",
      "ce/015008_ce.png"
    ],
    "rt": 19481,
    "trial_type": "image-rank",
    "trial_index": 94,
    "time_elapsed": 1592327,
    "internal_node_id": "0.0-94.0"
  },
  {
    "src": [
      "gl/051437_gl.png",
      "ours/051437_ours.png",
      "ce/051437_ce.png"
    ],
    "rank_data": [
      2,
      0,
      1
    ],
    "rank_result": [
      "ours/051437_ours.png",
      "ce/051437_ce.png",
      "gl/051437_gl.png"
    ],
    "rt": 17983,
    "trial_type": "image-rank",
    "trial_index": 95,
    "time_elapsed": 1610311,
    "internal_node_id": "0.0-95.0"
  },
  {
    "src": [
      "ce/166879_ce.png",
      "ours/166879_ours.png",
      "gl/166879_gl.png"
    ],
    "rank_data": [
      1,
      0,
      2
    ],
    "rank_result": [
      "ours/166879_ours.png",
      "ce/166879_ce.png",
      "gl/166879_gl.png"
    ],
    "rt": 7891,
    "trial_type": "image-rank",
    "trial_index": 96,
    "time_elapsed": 1618202,
    "internal_node_id": "0.0-96.0"
  },
  {
    "src": [
      "ce/150130_ce.png",
      "ours/150130_ours.png",
      "gl/150130_gl.png"
    ],
    "rank_data": [
      1,
      0,
      2
    ],
    "rank_result": [
      "ours/150130_ours.png",
      "ce/150130_ce.png",
      "gl/150130_gl.png"
    ],
    "rt": 10472,
    "trial_type": "image-rank",
    "trial_index": 97,
    "time_elapsed": 1628675,
    "internal_node_id": "0.0-97.0"
  },
  {
    "src": [
      "ours/005762_ours.png",
      "ce/005762_ce.png",
      "gl/005762_gl.png"
    ],
    "rank_data": [
      0,
      1,
      2
    ],
    "rank_result": [
      "ours/005762_ours.png",
      "ce/005762_ce.png",
      "gl/005762_gl.png"
    ],
    "rt": 16210,
    "trial_type": "image-rank",
    "trial_index": 98,
    "time_elapsed": 1644885,
    "internal_node_id": "0.0-98.0"
  },
  {
    "src": [
      "ours/108825_ours.png",
      "ce/108825_ce.png",
      "gl/108825_gl.png"
    ],
    "rank_data": [
      0,
      1,
      2
    ],
    "rank_result": [
      "ours/108825_ours.png",
      "ce/108825_ce.png",
      "gl/108825_gl.png"
    ],
    "rt": 6329,
    "trial_type": "image-rank",
    "trial_index": 99,
    "time_elapsed": 1651214,
    "internal_node_id": "0.0-99.0"
  },
  {
    "src": [
      "ce/057306_ce.png",
      "ours/057306_ours.png",
      "gl/057306_gl.png"
    ],
    "rank_data": [
      1,
      0,
      2
    ],
    "rank_result": [
      "ours/057306_ours.png",
      "ce/057306_ce.png",
      "gl/057306_gl.png"
    ],
    "rt": 6889,
    "trial_type": "image-rank",
    "trial_index": 100,
    "time_elapsed": 1658103,
    "internal_node_id": "0.0-100.0"
  },
  {
    "src": [
      "ours/029147_ours.png",
      "ce/029147_ce.png",
      "gl/029147_gl.png"
    ],
    "rank_data": [
      0,
      1,
      2
    ],
    "rank_result": [
      "ours/029147_ours.png",
      "ce/029147_ce.png",
      "gl/029147_gl.png"
    ],
    "rt": 5241,
    "trial_type": "image-rank",
    "trial_index": 101,
    "time_elapsed": 1663344,
    "internal_node_id": "0.0-101.0"
  },
  {
    "src": [
      "ce/103217_ce.png",
      "ours/103217_ours.png",
      "gl/103217_gl.png"
    ],
    "rank_data": [
      1,
      0,
      2
    ],
    "rank_result": [
      "ours/103217_ours.png",
      "ce/103217_ce.png",
      "gl/103217_gl.png"
    ],
    "rt": 10801,
    "trial_type": "image-rank",
    "trial_index": 102,
    "time_elapsed": 1674145,
    "internal_node_id": "0.0-102.0"
  }
]