[{"rt":2185,"stimulus":"Welcome to the experiment. Press any key to begin.","key_press":32,"trial_type":"html-keyboard-response","trial_index":0,"time_elapsed":2187,"internal_node_id":"0.0-0.0"},{"rt":3997,"stimulus":"<p>In this experiment, three images of people will appear in the center of the screen.</p><p>Your task is to rank these images based on how <strong>real</strong> you think they are.<p>The ranking level is between 1 to 3, with <strong>1</strong> representing the most real one and <strong>3</strong> the fakest one.</p><p>The time to rank is not limited. When you finish ranking, click the <strong>Continue</strong> button to continue.</p>","key_press":32,"trial_type":"html-keyboard-response","trial_index":1,"time_elapsed":6187,"internal_node_id":"0.0-1.0"},{"rt":null,"stimulus":"<div style=\"font-size:60px;\"></div>","key_press":null,"label":"fixation","trial_type":"html-keyboard-response","trial_index":2,"time_elapsed":7190,"internal_node_id":"0.0-2.0"},{"src":["ce/108447_ce.png","ours/108447_ours.png","gl/108447_gl.png"],"rank_data":[1,0,2],"rank_result":["ours/108447_ours.png","ce/108447_ce.png","gl/108447_gl.png"],"rt":8836,"trial_type":"image-rank","trial_index":3,"time_elapsed":16031,"internal_node_id":"0.0-3.0"},{"src":["ours/001834_ours.png","ce/001834_ce.png","gl/001834_gl.png"],"rank_data":[0,1,2],"rank_result":["ours/001834_ours.png","ce/001834_ce.png","gl/001834_gl.png"],"rt":15132,"trial_type":"image-rank","trial_index":4,"time_elapsed":31167,"internal_node_id":"0.0-4.0"},{"src":["ce/104859_ce.png","ours/104859_ours.png","gl/104859_gl.png"],"rank_data":[1,0,2],"rank_result":["ours/104859_ours.png","ce/104859_ce.png","gl/104859_gl.png"],"rt":28475,"trial_type":"image-rank","trial_index":5,"time_elapsed":59644,"internal_node_id":"0.0-5.0"},{"src":["ce/101222_ce.png","gl/101222_gl.png","ours/101222_ours.png"],"rank_data":[0,1,2],"rank_result":["ce/101222_ce.png","gl/101222_gl.png","ours/101222_ours.png"],"rt":16511,"trial_type":"image-rank","trial_index":6,"time_elapsed":76158,"internal_node_id":"0.0-6.0"},{"src":["ce/117988_ce.png","gl/117988_gl.png","ours/117988_ours.png"],"rank_data":[0,2,1],"rank_result":["ce/117988_ce.png","ours/117988_ours.png","gl/117988_gl.png"],"rt":14934,"trial_type":"image-rank","trial_index":7,"time_elapsed":91094,"internal_node_id":"0.0-7.0"},{"src":["ours/179183_ours.png","gl/179183_gl.png","ce/179183_ce.png"],"rank_data":[1,0,2],"rank_result":["gl/179183_gl.png","ours/179183_ours.png","ce/179183_ce.png"],"rt":11900,"trial_type":"image-rank","trial_index":8,"time_elapsed":102995,"internal_node_id":"0.0-8.0"},{"src":["ce/088236_ce.png","gl/088236_gl.png","ours/088236_ours.png"],"rank_data":[2,1,0],"rank_result":["ours/088236_ours.png","gl/088236_gl.png","ce/088236_ce.png"],"rt":9238,"trial_type":"image-rank","trial_index":9,"time_elapsed":112234,"internal_node_id":"0.0-9.0"},{"src":["gl/057363_gl.png","ce/057363_ce.png","ours/057363_ours.png"],"rank_data":[1,2,0],"rank_result":["ours/057363_ours.png","gl/057363_gl.png","ce/057363_ce.png"],"rt":5548,"trial_type":"image-rank","trial_index":10,"time_elapsed":117784,"internal_node_id":"0.0-10.0"},{"src":["ce/014396_ce.png","gl/014396_gl.png","ours/014396_ours.png"],"rank_data":[2,1,0],"rank_result":["ours/014396_ours.png","gl/014396_gl.png","ce/014396_ce.png"],"rt":9443,"trial_type":"image-rank","trial_index":11,"time_elapsed":127228,"internal_node_id":"0.0-11.0"},{"src":["ce/112320_ce.png","gl/112320_gl.png","ours/112320_ours.png"],"rank_data":[1,2,0],"rank_result":["ours/112320_ours.png","ce/112320_ce.png","gl/112320_gl.png"],"rt":6352,"trial_type":"image-rank","trial_index":12,"time_elapsed":133581,"internal_node_id":"0.0-12.0"},{"src":["ours/125083_ours.png","ce/125083_ce.png","gl/125083_gl.png"],"rank_data":[0,1,2],"rank_result":["ours/125083_ours.png","ce/125083_ce.png","gl/125083_gl.png"],"rt":6810,"trial_type":"image-rank","trial_index":13,"time_elapsed":140392,"internal_node_id":"0.0-13.0"},{"src":["ours/083322_ours.png","ce/083322_ce.png","gl/083322_gl.png"],"rank_data":[0,1,2],"rank_result":["ours/083322_ours.png","ce/083322_ce.png","gl/083322_gl.png"],"rt":5946,"trial_type":"image-rank","trial_index":14,"time_elapsed":146340,"internal_node_id":"0.0-14.0"},{"src":["ce/039913_ce.png","gl/039913_gl.png","ours/039913_ours.png"],"rank_data":[2,1,0],"rank_result":["ours/039913_ours.png","gl/039913_gl.png","ce/039913_ce.png"],"rt":6625,"trial_type":"image-rank","trial_index":15,"time_elapsed":152968,"internal_node_id":"0.0-15.0"},{"src":["ours/004253_ours.png","ce/004253_ce.png","gl/004253_gl.png"],"rank_data":[1,2,0],"rank_result":["gl/004253_gl.png","ours/004253_ours.png","ce/004253_ce.png"],"rt":7705,"trial_type":"image-rank","trial_index":16,"time_elapsed":160674,"internal_node_id":"0.0-16.0"},{"src":["ours/065974_ours.png","ce/065974_ce.png","gl/065974_gl.png"],"rank_data":[1,0,2],"rank_result":["ce/065974_ce.png","ours/065974_ours.png","gl/065974_gl.png"],"rt":19988,"trial_type":"image-rank","trial_index":17,"time_elapsed":180663,"internal_node_id":"0.0-17.0"},{"src":["ce/135730_ce.png","ours/135730_ours.png","gl/135730_gl.png"],"rank_data":[1,0,2],"rank_result":["ours/135730_ours.png","ce/135730_ce.png","gl/135730_gl.png"],"rt":18215,"trial_type":"image-rank","trial_index":18,"time_elapsed":198878,"internal_node_id":"0.0-18.0"},{"src":["ours/084863_ours.png","ce/084863_ce.png","gl/084863_gl.png"],"rank_data":[0,1,2],"rank_result":["ours/084863_ours.png","ce/084863_ce.png","gl/084863_gl.png"],"rt":20392,"trial_type":"image-rank","trial_index":19,"time_elapsed":219272,"internal_node_id":"0.0-19.0"},{"src":["ce/013939_ce.png","gl/013939_gl.png","ours/013939_ours.png"],"rank_data":[1,2,0],"rank_result":["ours/013939_ours.png","ce/013939_ce.png","gl/013939_gl.png"],"rt":6822,"trial_type":"image-rank","trial_index":20,"time_elapsed":226095,"internal_node_id":"0.0-20.0"},{"src":["ce/031028_ce.png","gl/031028_gl.png","ours/031028_ours.png"],"rank_data":[1,2,0],"rank_result":["ours/031028_ours.png","ce/031028_ce.png","gl/031028_gl.png"],"rt":5162,"trial_type":"image-rank","trial_index":21,"time_elapsed":231260,"internal_node_id":"0.0-21.0"},{"src":["ours/119647_ours.png","ce/119647_ce.png","gl/119647_gl.png"],"rank_data":[0,2,1],"rank_result":["ours/119647_ours.png","gl/119647_gl.png","ce/119647_ce.png"],"rt":6406,"trial_type":"image-rank","trial_index":22,"time_elapsed":237668,"internal_node_id":"0.0-22.0"},{"src":["ours/048318_ours.png","gl/048318_gl.png","ce/048318_ce.png"],"rank_data":[0,2,1],"rank_result":["ours/048318_ours.png","ce/048318_ce.png","gl/048318_gl.png"],"rt":4760,"trial_type":"image-rank","trial_index":23,"time_elapsed":242428,"internal_node_id":"0.0-23.0"},{"src":["ours/022790_ours.png","ce/022790_ce.png","gl/022790_gl.png"],"rank_data":[0,2,1],"rank_result":["ours/022790_ours.png","gl/022790_gl.png","ce/022790_ce.png"],"rt":6087,"trial_type":"image-rank","trial_index":24,"time_elapsed":248516,"internal_node_id":"0.0-24.0"},{"src":["ours/097272_ours.png","gl/097272_gl.png","ce/097272_ce.png"],"rank_data":[1,0,2],"rank_result":["gl/097272_gl.png","ours/097272_ours.png","ce/097272_ce.png"],"rt":12592,"trial_type":"image-rank","trial_index":25,"time_elapsed":261109,"internal_node_id":"0.0-25.0"},{"src":["gl/043413_gl.png","ours/043413_ours.png","ce/043413_ce.png"],"rank_data":[2,0,1],"rank_result":["ours/043413_ours.png","ce/043413_ce.png","gl/043413_gl.png"],"rt":5563,"trial_type":"image-rank","trial_index":26,"time_elapsed":266673,"internal_node_id":"0.0-26.0"},{"src":["ours/042994_ours.png","gl/042994_gl.png","ce/042994_ce.png"],"rank_data":[0,2,1],"rank_result":["ours/042994_ours.png","ce/042994_ce.png","gl/042994_gl.png"],"rt":6563,"trial_type":"image-rank","trial_index":27,"time_elapsed":273237,"internal_node_id":"0.0-27.0"},{"src":["ce/163266_ce.png","gl/163266_gl.png","ours/163266_ours.png"],"rank_data":[1,2,0],"rank_result":["ours/163266_ours.png","ce/163266_ce.png","gl/163266_gl.png"],"rt":5231,"trial_type":"image-rank","trial_index":28,"time_elapsed":278469,"internal_node_id":"0.0-28.0"},{"src":["ours/187643_ours.png","gl/187643_gl.png","ce/187643_ce.png"],"rank_data":[0,1,2],"rank_result":["ours/187643_ours.png","gl/187643_gl.png","ce/187643_ce.png"],"rt":11866,"trial_type":"image-rank","trial_index":29,"time_elapsed":290336,"internal_node_id":"0.0-29.0"},{"src":["ours/066323_ours.png","ce/066323_ce.png","gl/066323_gl.png"],"rank_data":[0,2,1],"rank_result":["ours/066323_ours.png","gl/066323_gl.png","ce/066323_ce.png"],"rt":7217,"trial_type":"image-rank","trial_index":30,"time_elapsed":297556,"internal_node_id":"0.0-30.0"},{"src":["ce/038052_ce.png","gl/038052_gl.png","ours/038052_ours.png"],"rank_data":[2,1,0],"rank_result":["ours/038052_ours.png","gl/038052_gl.png","ce/038052_ce.png"],"rt":7451,"trial_type":"image-rank","trial_index":31,"time_elapsed":305010,"internal_node_id":"0.0-31.0"},{"src":["ce/009466_ce.png","gl/009466_gl.png","ours/009466_ours.png"],"rank_data":[2,1,0],"rank_result":["ours/009466_ours.png","gl/009466_gl.png","ce/009466_ce.png"],"rt":5810,"trial_type":"image-rank","trial_index":32,"time_elapsed":310820,"internal_node_id":"0.0-32.0"},{"src":["gl/067252_gl.png","ce/067252_ce.png","ours/067252_ours.png"],"rank_data":[2,1,0],"rank_result":["ours/067252_ours.png","ce/067252_ce.png","gl/067252_gl.png"],"rt":20544,"trial_type":"image-rank","trial_index":33,"time_elapsed":331365,"internal_node_id":"0.0-33.0"},{"src":["ours/085082_ours.png","gl/085082_gl.png","ce/085082_ce.png"],"rank_data":[0,2,1],"rank_result":["ours/085082_ours.png","ce/085082_ce.png","gl/085082_gl.png"],"rt":9647,"trial_type":"image-rank","trial_index":34,"time_elapsed":341013,"internal_node_id":"0.0-34.0"},{"src":["ours/056841_ours.png","ce/056841_ce.png","gl/056841_gl.png"],"rank_data":[0,1,2],"rank_result":["ours/056841_ours.png","ce/056841_ce.png","gl/056841_gl.png"],"rt":6006,"trial_type":"image-rank","trial_index":35,"time_elapsed":347020,"internal_node_id":"0.0-35.0"},{"src":["gl/090888_gl.png","ours/090888_ours.png","ce/090888_ce.png"],"rank_data":[1,0,2],"rank_result":["ours/090888_ours.png","gl/090888_gl.png","ce/090888_ce.png"],"rt":7694,"trial_type":"image-rank","trial_index":36,"time_elapsed":354715,"internal_node_id":"0.0-36.0"},{"src":["ours/114596_ours.png","gl/114596_gl.png","ce/114596_ce.png"],"rank_data":[1,2,0],"rank_result":["ce/114596_ce.png","ours/114596_ours.png","gl/114596_gl.png"],"rt":6429,"trial_type":"image-rank","trial_index":37,"time_elapsed":361146,"internal_node_id":"0.0-37.0"},{"src":["ce/125295_ce.png","ours/125295_ours.png","gl/125295_gl.png"],"rank_data":[2,0,1],"rank_result":["ours/125295_ours.png","gl/125295_gl.png","ce/125295_ce.png"],"rt":11734,"trial_type":"image-rank","trial_index":38,"time_elapsed":372881,"internal_node_id":"0.0-38.0"},{"src":["gl/182439_gl.png","ce/182439_ce.png","ours/182439_ours.png"],"rank_data":[2,1,0],"rank_result":["ours/182439_ours.png","ce/182439_ce.png","gl/182439_gl.png"],"rt":5989,"trial_type":"image-rank","trial_index":39,"time_elapsed":378871,"internal_node_id":"0.0-39.0"},{"src":["gl/136656_gl.png","ours/136656_ours.png","ce/136656_ce.png"],"rank_data":[2,0,1],"rank_result":["ours/136656_ours.png","ce/136656_ce.png","gl/136656_gl.png"],"rt":6634,"trial_type":"image-rank","trial_index":40,"time_elapsed":385506,"internal_node_id":"0.0-40.0"},{"src":["gl/048576_gl.png","ours/048576_ours.png","ce/048576_ce.png"],"rank_data":[2,1,0],"rank_result":["ce/048576_ce.png","ours/048576_ours.png","gl/048576_gl.png"],"rt":16031,"trial_type":"image-rank","trial_index":41,"time_elapsed":401538,"internal_node_id":"0.0-41.0"},{"src":["gl/000497_gl.png","ours/000497_ours.png","ce/000497_ce.png"],"rank_data":[2,0,1],"rank_result":["ours/000497_ours.png","ce/000497_ce.png","gl/000497_gl.png"],"rt":25655,"trial_type":"image-rank","trial_index":42,"time_elapsed":427194,"internal_node_id":"0.0-42.0"},{"src":["ce/019681_ce.png","gl/019681_gl.png","ours/019681_ours.png"],"rank_data":[2,1,0],"rank_result":["ours/019681_ours.png","gl/019681_gl.png","ce/019681_ce.png"],"rt":5376,"trial_type":"image-rank","trial_index":43,"time_elapsed":432571,"internal_node_id":"0.0-43.0"},{"src":["ours/100554_ours.png","ce/100554_ce.png","gl/100554_gl.png"],"rank_data":[0,1,2],"rank_result":["ours/100554_ours.png","ce/100554_ce.png","gl/100554_gl.png"],"rt":5831,"trial_type":"image-rank","trial_index":44,"time_elapsed":438403,"internal_node_id":"0.0-44.0"},{"src":["gl/046081_gl.png","ours/046081_ours.png","ce/046081_ce.png"],"rank_data":[2,0,1],"rank_result":["ours/046081_ours.png","ce/046081_ce.png","gl/046081_gl.png"],"rt":5292,"trial_type":"image-rank","trial_index":45,"time_elapsed":443699,"internal_node_id":"0.0-45.0"},{"src":["ours/030516_ours.png","ce/030516_ce.png","gl/030516_gl.png"],"rank_data":[0,2,1],"rank_result":["ours/030516_ours.png","gl/030516_gl.png","ce/030516_ce.png"],"rt":5649,"trial_type":"image-rank","trial_index":46,"time_elapsed":449349,"internal_node_id":"0.0-46.0"},{"src":["gl/122728_gl.png","ce/122728_ce.png","ours/122728_ours.png"],"rank_data":[2,0,1],"rank_result":["ce/122728_ce.png","ours/122728_ours.png","gl/122728_gl.png"],"rt":9527,"trial_type":"image-rank","trial_index":47,"time_elapsed":458877,"internal_node_id":"0.0-47.0"},{"src":["gl/138274_gl.png","ours/138274_ours.png","ce/138274_ce.png"],"rank_data":[2,1,0],"rank_result":["ce/138274_ce.png","ours/138274_ours.png","gl/138274_gl.png"],"rt":4887,"trial_type":"image-rank","trial_index":48,"time_elapsed":463765,"internal_node_id":"0.0-48.0"},{"src":["ce/045555_ce.png","ours/045555_ours.png","gl/045555_gl.png"],"rank_data":[1,0,2],"rank_result":["ours/045555_ours.png","ce/045555_ce.png","gl/045555_gl.png"],"rt":5632,"trial_type":"image-rank","trial_index":49,"time_elapsed":469398,"internal_node_id":"0.0-49.0"},{"src":["ce/147168_ce.png","ours/147168_ours.png","gl/147168_gl.png"],"rank_data":[1,0,2],"rank_result":["ours/147168_ours.png","ce/147168_ce.png","gl/147168_gl.png"],"rt":7681,"trial_type":"image-rank","trial_index":50,"time_elapsed":477080,"internal_node_id":"0.0-50.0"},{"src":["ce/101131_ce.png","gl/101131_gl.png","ours/101131_ours.png"],"rank_data":[0,2,1],"rank_result":["ce/101131_ce.png","ours/101131_ours.png","gl/101131_gl.png"],"rt":6521,"trial_type":"image-rank","trial_index":51,"time_elapsed":483602,"internal_node_id":"0.0-51.0"},{"src":["ce/165691_ce.png","ours/165691_ours.png","gl/165691_gl.png"],"rank_data":[1,0,2],"rank_result":["ours/165691_ours.png","ce/165691_ce.png","gl/165691_gl.png"],"rt":5591,"trial_type":"image-rank","trial_index":52,"time_elapsed":489194,"internal_node_id":"0.0-52.0"},{"src":["ce/121093_ce.png","gl/121093_gl.png","ours/121093_ours.png"],"rank_data":[2,1,0],"rank_result":["ours/121093_ours.png","gl/121093_gl.png","ce/121093_ce.png"],"rt":5039,"trial_type":"image-rank","trial_index":53,"time_elapsed":494234,"internal_node_id":"0.0-53.0"},{"src":["ce/101628_ce.png","ours/101628_ours.png","gl/101628_gl.png"],"rank_data":[2,1,0],"rank_result":["gl/101628_gl.png","ours/101628_ours.png","ce/101628_ce.png"],"rt":5922,"trial_type":"image-rank","trial_index":54,"time_elapsed":500157,"internal_node_id":"0.0-54.0"},{"src":["ours/137155_ours.png","gl/137155_gl.png","ce/137155_ce.png"],"rank_data":[0,1,2],"rank_result":["ours/137155_ours.png","gl/137155_gl.png","ce/137155_ce.png"],"rt":8300,"trial_type":"image-rank","trial_index":55,"time_elapsed":508458,"internal_node_id":"0.0-55.0"},{"src":["ce/085777_ce.png","gl/085777_gl.png","ours/085777_ours.png"],"rank_data":[2,1,0],"rank_result":["ours/085777_ours.png","gl/085777_gl.png","ce/085777_ce.png"],"rt":4165,"trial_type":"image-rank","trial_index":56,"time_elapsed":512624,"internal_node_id":"0.0-56.0"},{"src":["gl/016526_gl.png","ce/016526_ce.png","ours/016526_ours.png"],"rank_data":[1,2,0],"rank_result":["ours/016526_ours.png","gl/016526_gl.png","ce/016526_ce.png"],"rt":5483,"trial_type":"image-rank","trial_index":57,"time_elapsed":518108,"internal_node_id":"0.0-57.0"},{"src":["ce/045820_ce.png","ours/045820_ours.png","gl/045820_gl.png"],"rank_data":[2,0,1],"rank_result":["ours/045820_ours.png","gl/045820_gl.png","ce/045820_ce.png"],"rt":6138,"trial_type":"image-rank","trial_index":58,"time_elapsed":524247,"internal_node_id":"0.0-58.0"},{"src":["ce/050294_ce.png","ours/050294_ours.png","gl/050294_gl.png"],"rank_data":[1,0,2],"rank_result":["ours/050294_ours.png","ce/050294_ce.png","gl/050294_gl.png"],"rt":9304,"trial_type":"image-rank","trial_index":59,"time_elapsed":533552,"internal_node_id":"0.0-59.0"},{"src":["gl/181067_gl.png","ours/181067_ours.png","ce/181067_ce.png"],"rank_data":[2,0,1],"rank_result":["ours/181067_ours.png","ce/181067_ce.png","gl/181067_gl.png"],"rt":8801,"trial_type":"image-rank","trial_index":60,"time_elapsed":542354,"internal_node_id":"0.0-60.0"},{"src":["gl/074556_gl.png","ce/074556_ce.png","ours/074556_ours.png"],"rank_data":[2,1,0],"rank_result":["ours/074556_ours.png","ce/074556_ce.png","gl/074556_gl.png"],"rt":6708,"trial_type":"image-rank","trial_index":61,"time_elapsed":549063,"internal_node_id":"0.0-61.0"},{"src":["ce/175564_ce.png","ours/175564_ours.png","gl/175564_gl.png"],"rank_data":[1,0,2],"rank_result":["ours/175564_ours.png","ce/175564_ce.png","gl/175564_gl.png"],"rt":7313,"trial_type":"image-rank","trial_index":62,"time_elapsed":556377,"internal_node_id":"0.0-62.0"},{"src":["ours/010803_ours.png","gl/010803_gl.png","ce/010803_ce.png"],"rank_data":[0,2,1],"rank_result":["ours/010803_ours.png","ce/010803_ce.png","gl/010803_gl.png"],"rt":11415,"trial_type":"image-rank","trial_index":63,"time_elapsed":567793,"internal_node_id":"0.0-63.0"},{"src":["gl/156883_gl.png","ce/156883_ce.png","ours/156883_ours.png"],"rank_data":[1,2,0],"rank_result":["ours/156883_ours.png","gl/156883_gl.png","ce/156883_ce.png"],"rt":8401,"trial_type":"image-rank","trial_index":64,"time_elapsed":576195,"internal_node_id":"0.0-64.0"},{"src":["ours/171920_ours.png","ce/171920_ce.png","gl/171920_gl.png"],"rank_data":[0,1,2],"rank_result":["ours/171920_ours.png","ce/171920_ce.png","gl/171920_gl.png"],"rt":11531,"trial_type":"image-rank","trial_index":65,"time_elapsed":587728,"internal_node_id":"0.0-65.0"},{"src":["gl/156940_gl.png","ce/156940_ce.png","ours/156940_ours.png"],"rank_data":[1,2,0],"rank_result":["ours/156940_ours.png","gl/156940_gl.png","ce/156940_ce.png"],"rt":10264,"trial_type":"image-rank","trial_index":66,"time_elapsed":597992,"internal_node_id":"0.0-66.0"},{"src":["ours/174899_ours.png","gl/174899_gl.png","ce/174899_ce.png"],"rank_data":[0,2,1],"rank_result":["ours/174899_ours.png","ce/174899_ce.png","gl/174899_gl.png"],"rt":6915,"trial_type":"image-rank","trial_index":67,"time_elapsed":604908,"internal_node_id":"0.0-67.0"},{"src":["ours/166453_ours.png","ce/166453_ce.png","gl/166453_gl.png"],"rank_data":[0,2,1],"rank_result":["ours/166453_ours.png","gl/166453_gl.png","ce/166453_ce.png"],"rt":9856,"trial_type":"image-rank","trial_index":68,"time_elapsed":614765,"internal_node_id":"0.0-68.0"},{"src":["ce/008581_ce.png","gl/008581_gl.png","ours/008581_ours.png"],"rank_data":[0,2,1],"rank_result":["ce/008581_ce.png","ours/008581_ours.png","gl/008581_gl.png"],"rt":11406,"trial_type":"image-rank","trial_index":69,"time_elapsed":626172,"internal_node_id":"0.0-69.0"},{"src":["ce/168483_ce.png","gl/168483_gl.png","ours/168483_ours.png"],"rank_data":[2,1,0],"rank_result":["ours/168483_ours.png","gl/168483_gl.png","ce/168483_ce.png"],"rt":11217,"trial_type":"image-rank","trial_index":70,"time_elapsed":637390,"internal_node_id":"0.0-70.0"},{"src":["ce/167276_ce.png","ours/167276_ours.png","gl/167276_gl.png"],"rank_data":[1,0,2],"rank_result":["ours/167276_ours.png","ce/167276_ce.png","gl/167276_gl.png"],"rt":8195,"trial_type":"image-rank","trial_index":71,"time_elapsed":645588,"internal_node_id":"0.0-71.0"},{"src":["ce/121100_ce.png","gl/121100_gl.png","ours/121100_ours.png"],"rank_data":[2,1,0],"rank_result":["ours/121100_ours.png","gl/121100_gl.png","ce/121100_ce.png"],"rt":8477,"trial_type":"image-rank","trial_index":72,"time_elapsed":654065,"internal_node_id":"0.0-72.0"},{"src":["ce/103941_ce.png","ours/103941_ours.png","gl/103941_gl.png"],"rank_data":[2,0,1],"rank_result":["ours/103941_ours.png","gl/103941_gl.png","ce/103941_ce.png"],"rt":3908,"trial_type":"image-rank","trial_index":73,"time_elapsed":657974,"internal_node_id":"0.0-73.0"},{"src":["gl/177985_gl.png","ours/177985_ours.png","ce/177985_ce.png"],"rank_data":[0,2,1],"rank_result":["gl/177985_gl.png","ce/177985_ce.png","ours/177985_ours.png"],"rt":5536,"trial_type":"image-rank","trial_index":74,"time_elapsed":663511,"internal_node_id":"0.0-74.0"},{"src":["ours/040038_ours.png","ce/040038_ce.png","gl/040038_gl.png"],"rank_data":[0,1,2],"rank_result":["ours/040038_ours.png","ce/040038_ce.png","gl/040038_gl.png"],"rt":5119,"trial_type":"image-rank","trial_index":75,"time_elapsed":668630,"internal_node_id":"0.0-75.0"},{"src":["gl/042063_gl.png","ours/042063_ours.png","ce/042063_ce.png"],"rank_data":[2,0,1],"rank_result":["ours/042063_ours.png","ce/042063_ce.png","gl/042063_gl.png"],"rt":3601,"trial_type":"image-rank","trial_index":76,"time_elapsed":672232,"internal_node_id":"0.0-76.0"},{"src":["gl/142513_gl.png","ours/142513_ours.png","ce/142513_ce.png"],"rank_data":[2,1,0],"rank_result":["ce/142513_ce.png","ours/142513_ours.png","gl/142513_gl.png"],"rt":11931,"trial_type":"image-rank","trial_index":77,"time_elapsed":684164,"internal_node_id":"0.0-77.0"},{"src":["ce/015684_ce.png","gl/015684_gl.png","ours/015684_ours.png"],"rank_data":[2,1,0],"rank_result":["ours/015684_ours.png","gl/015684_gl.png","ce/015684_ce.png"],"rt":5159,"trial_type":"image-rank","trial_index":78,"time_elapsed":689324,"internal_node_id":"0.0-78.0"},{"src":["ce/035610_ce.png","ours/035610_ours.png","gl/035610_gl.png"],"rank_data":[1,0,2],"rank_result":["ours/035610_ours.png","ce/035610_ce.png","gl/035610_gl.png"],"rt":5820,"trial_type":"image-rank","trial_index":79,"time_elapsed":695145,"internal_node_id":"0.0-79.0"},{"src":["ours/191941_ours.png","gl/191941_gl.png","ce/191941_ce.png"],"rank_data":[0,2,1],"rank_result":["ours/191941_ours.png","ce/191941_ce.png","gl/191941_gl.png"],"rt":7754,"trial_type":"image-rank","trial_index":80,"time_elapsed":702900,"internal_node_id":"0.0-80.0"},{"src":["ce/142429_ce.png","ours/142429_ours.png","gl/142429_gl.png"],"rank_data":[2,0,1],"rank_result":["ours/142429_ours.png","gl/142429_gl.png","ce/142429_ce.png"],"rt":7295,"trial_type":"image-rank","trial_index":81,"time_elapsed":710196,"internal_node_id":"0.0-81.0"},{"src":["ours/063684_ours.png","ce/063684_ce.png","gl/063684_gl.png"],"rank_data":[0,1,2],"rank_result":["ours/063684_ours.png","ce/063684_ce.png","gl/063684_gl.png"],"rt":5966,"trial_type":"image-rank","trial_index":82,"time_elapsed":716163,"internal_node_id":"0.0-82.0"},{"src":["ce/200654_ce.png","ours/200654_ours.png","gl/200654_gl.png"],"rank_data":[2,0,1],"rank_result":["ours/200654_ours.png","gl/200654_gl.png","ce/200654_ce.png"],"rt":3899,"trial_type":"image-rank","trial_index":83,"time_elapsed":720063,"internal_node_id":"0.0-83.0"},{"src":["ce/137139_ce.png","gl/137139_gl.png","ours/137139_ours.png"],"rank_data":[2,1,0],"rank_result":["ours/137139_ours.png","gl/137139_gl.png","ce/137139_ce.png"],"rt":5910,"trial_type":"image-rank","trial_index":84,"time_elapsed":725974,"internal_node_id":"0.0-84.0"},{"src":["ours/050883_ours.png","gl/050883_gl.png","ce/050883_ce.png"],"rank_data":[0,1,2],"rank_result":["ours/050883_ours.png","gl/050883_gl.png","ce/050883_ce.png"],"rt":15300,"trial_type":"image-rank","trial_index":85,"time_elapsed":741275,"internal_node_id":"0.0-85.0"},{"src":["ce/102967_ce.png","ours/102967_ours.png","gl/102967_gl.png"],"rank_data":[1,0,2],"rank_result":["ours/102967_ours.png","ce/102967_ce.png","gl/102967_gl.png"],"rt":7882,"trial_type":"image-rank","trial_index":86,"time_elapsed":749158,"internal_node_id":"0.0-86.0"},{"src":["ours/013838_ours.png","ce/013838_ce.png","gl/013838_gl.png"],"rank_data":[0,2,1],"rank_result":["ours/013838_ours.png","gl/013838_gl.png","ce/013838_ce.png"],"rt":12164,"trial_type":"image-rank","trial_index":87,"time_elapsed":761322,"internal_node_id":"0.0-87.0"},{"src":["ours/118834_ours.png","ce/118834_ce.png","gl/118834_gl.png"],"rank_data":[0,2,1],"rank_result":["ours/118834_ours.png","gl/118834_gl.png","ce/118834_ce.png"],"rt":6045,"trial_type":"image-rank","trial_index":88,"time_elapsed":767369,"internal_node_id":"0.0-88.0"},{"src":["ce/059958_ce.png","ours/059958_ours.png","gl/059958_gl.png"],"rank_data":[2,0,1],"rank_result":["ours/059958_ours.png","gl/059958_gl.png","ce/059958_ce.png"],"rt":8142,"trial_type":"image-rank","trial_index":89,"time_elapsed":775512,"internal_node_id":"0.0-89.0"},{"src":["ours/060266_ours.png","gl/060266_gl.png","ce/060266_ce.png"],"rank_data":[1,2,0],"rank_result":["ce/060266_ce.png","ours/060266_ours.png","gl/060266_gl.png"],"rt":12782,"trial_type":"image-rank","trial_index":90,"time_elapsed":788295,"internal_node_id":"0.0-90.0"},{"src":["ours/087185_ours.png","gl/087185_gl.png","ce/087185_ce.png"],"rank_data":[0,2,1],"rank_result":["ours/087185_ours.png","ce/087185_ce.png","gl/087185_gl.png"],"rt":4996,"trial_type":"image-rank","trial_index":91,"time_elapsed":793292,"internal_node_id":"0.0-91.0"},{"src":["ours/100445_ours.png","gl/100445_gl.png","ce/100445_ce.png"],"rank_data":[0,2,1],"rank_result":["ours/100445_ours.png","ce/100445_ce.png","gl/100445_gl.png"],"rt":4356,"trial_type":"image-rank","trial_index":92,"time_elapsed":797649,"internal_node_id":"0.0-92.0"},{"src":["ce/031244_ce.png","gl/031244_gl.png","ours/031244_ours.png"],"rank_data":[1,2,0],"rank_result":["ours/031244_ours.png","ce/031244_ce.png","gl/031244_gl.png"],"rt":4304,"trial_type":"image-rank","trial_index":93,"time_elapsed":801954,"internal_node_id":"0.0-93.0"},{"src":["ce/062980_ce.png","ours/062980_ours.png","gl/062980_gl.png"],"rank_data":[1,0,2],"rank_result":["ours/062980_ours.png","ce/062980_ce.png","gl/062980_gl.png"],"rt":12665,"trial_type":"image-rank","trial_index":94,"time_elapsed":814620,"internal_node_id":"0.0-94.0"},{"src":["gl/065334_gl.png","ours/065334_ours.png","ce/065334_ce.png"],"rank_data":[1,0,2],"rank_result":["ours/065334_ours.png","gl/065334_gl.png","ce/065334_ce.png"],"rt":4428,"trial_type":"image-rank","trial_index":95,"time_elapsed":819049,"internal_node_id":"0.0-95.0"},{"src":["ce/155491_ce.png","ours/155491_ours.png","gl/155491_gl.png"],"rank_data":[1,0,2],"rank_result":["ours/155491_ours.png","ce/155491_ce.png","gl/155491_gl.png"],"rt":4550,"trial_type":"image-rank","trial_index":96,"time_elapsed":823600,"internal_node_id":"0.0-96.0"},{"src":["gl/107612_gl.png","ours/107612_ours.png","ce/107612_ce.png"],"rank_data":[2,0,1],"rank_result":["ours/107612_ours.png","ce/107612_ce.png","gl/107612_gl.png"],"rt":10885,"trial_type":"image-rank","trial_index":97,"time_elapsed":834486,"internal_node_id":"0.0-97.0"},{"src":["ours/009839_ours.png","ce/009839_ce.png","gl/009839_gl.png"],"rank_data":[0,1,2],"rank_result":["ours/009839_ours.png","ce/009839_ce.png","gl/009839_gl.png"],"rt":6877,"trial_type":"image-rank","trial_index":98,"time_elapsed":841364,"internal_node_id":"0.0-98.0"},{"src":["ce/180864_ce.png","ours/180864_ours.png","gl/180864_gl.png"],"rank_data":[0,2,1],"rank_result":["ce/180864_ce.png","gl/180864_gl.png","ours/180864_ours.png"],"rt":12097,"trial_type":"image-rank","trial_index":99,"time_elapsed":853462,"internal_node_id":"0.0-99.0"},{"src":["ce/000646_ce.png","ours/000646_ours.png","gl/000646_gl.png"],"rank_data":[2,0,1],"rank_result":["ours/000646_ours.png","gl/000646_gl.png","ce/000646_ce.png"],"rt":5787,"trial_type":"image-rank","trial_index":100,"time_elapsed":859250,"internal_node_id":"0.0-100.0"},{"src":["ours/060453_ours.png","ce/060453_ce.png","gl/060453_gl.png"],"rank_data":[0,1,2],"rank_result":["ours/060453_ours.png","ce/060453_ce.png","gl/060453_gl.png"],"rt":5384,"trial_type":"image-rank","trial_index":101,"time_elapsed":864634,"internal_node_id":"0.0-101.0"},{"src":["ours/199571_ours.png","gl/199571_gl.png","ce/199571_ce.png"],"rank_data":[0,1,2],"rank_result":["ours/199571_ours.png","gl/199571_gl.png","ce/199571_ce.png"],"rt":3926,"trial_type":"image-rank","trial_index":102,"time_elapsed":868562,"internal_node_id":"0.0-102.0"}]