[{"rt":9506,"stimulus":"Welcome to the experiment. Press any key to begin.","key_press":32,"trial_type":"html-keyboard-response","trial_index":0,"time_elapsed":9512,"internal_node_id":"0.0-0.0"},{"rt":5887,"stimulus":"<p>In this experiment, three images of people will appear in the center of the screen.</p><p>Your task is to rank these images based on how <strong>real</strong> you think they are.<p>The ranking level is between 1 to 3, with <strong>1</strong> representing the most realistic one and <strong>3</strong> the least realistic one.</p><p>There are totally 100 groups of images. The time to rank is not limited. </p> <p>When you finish one group, click the <strong>Continue</strong> button to continue to the next one.</p><p>At the end of the experiment, your name and age will be asked and recorded.</p>","key_press":32,"trial_type":"html-keyboard-response","trial_index":1,"time_elapsed":15406,"internal_node_id":"0.0-1.0"},{"rt":null,"stimulus":"<div style=\"font-size:60px;\"></div>","key_press":null,"trial_type":"html-keyboard-response","trial_index":2,"time_elapsed":16009,"internal_node_id":"0.0-2.0"},{"src":["gl/174446_gl.png","ce/174446_ce.png","ours/174446_ours.png"],"rank_data":[2,1,0],"rank_result":["ours/174446_ours.png","ce/174446_ce.png","gl/174446_gl.png"],"rt":15806,"trial_type":"image-rank","trial_index":3,"time_elapsed":31816,"internal_node_id":"0.0-3.0"},{"src":["ours/175400_ours.png","ce/175400_ce.png","gl/175400_gl.png"],"rank_data":[0,2,1],"rank_result":["ours/175400_ours.png","gl/175400_gl.png","ce/175400_ce.png"],"rt":10217,"trial_type":"image-rank","trial_index":4,"time_elapsed":42033,"internal_node_id":"0.0-4.0"},{"src":["gl/035625_gl.png","ours/035625_ours.png","ce/035625_ce.png"],"rank_data":[1,0,2],"rank_result":["ours/035625_ours.png","gl/035625_gl.png","ce/035625_ce.png"],"rt":8773,"trial_type":"image-rank","trial_index":5,"time_elapsed":50808,"internal_node_id":"0.0-5.0"},{"src":["gl/190778_gl.png","ce/190778_ce.png","ours/190778_ours.png"],"rank_data":[2,1,0],"rank_result":["ours/190778_ours.png","ce/190778_ce.png","gl/190778_gl.png"],"rt":5375,"trial_type":"image-rank","trial_index":6,"time_elapsed":56183,"internal_node_id":"0.0-6.0"},{"src":["ours/073683_ours.png","gl/073683_gl.png","ce/073683_ce.png"],"rank_data":[0,2,1],"rank_result":["ours/073683_ours.png","ce/073683_ce.png","gl/073683_gl.png"],"rt":6171,"trial_type":"image-rank","trial_index":7,"time_elapsed":62355,"internal_node_id":"0.0-7.0"},{"src":["ours/199041_ours.png","ce/199041_ce.png","gl/199041_gl.png"],"rank_data":[0,2,1],"rank_result":["ours/199041_ours.png","gl/199041_gl.png","ce/199041_ce.png"],"rt":12715,"trial_type":"image-rank","trial_index":8,"time_elapsed":75072,"internal_node_id":"0.0-8.0"},{"src":["ce/099854_ce.png","gl/099854_gl.png","ours/099854_ours.png"],"rank_data":[2,1,0],"rank_result":["ours/099854_ours.png","gl/099854_gl.png","ce/099854_ce.png"],"rt":6547,"trial_type":"image-rank","trial_index":9,"time_elapsed":81620,"internal_node_id":"0.0-9.0"},{"src":["gl/046829_gl.png","ce/046829_ce.png","ours/046829_ours.png"],"rank_data":[2,1,0],"rank_result":["ours/046829_ours.png","ce/046829_ce.png","gl/046829_gl.png"],"rt":6105,"trial_type":"image-rank","trial_index":10,"time_elapsed":87726,"internal_node_id":"0.0-10.0"},{"src":["ce/093441_ce.png","gl/093441_gl.png","ours/093441_ours.png"],"rank_data":[1,2,0],"rank_result":["ours/093441_ours.png","ce/093441_ce.png","gl/093441_gl.png"],"rt":7041,"trial_type":"image-rank","trial_index":11,"time_elapsed":94767,"internal_node_id":"0.0-11.0"},{"src":["ce/083734_ce.png","gl/083734_gl.png","ours/083734_ours.png"],"rank_data":[2,0,1],"rank_result":["gl/083734_gl.png","ours/083734_ours.png","ce/083734_ce.png"],"rt":10606,"trial_type":"image-rank","trial_index":12,"time_elapsed":105373,"internal_node_id":"0.0-12.0"},{"src":["ours/156206_ours.png","ce/156206_ce.png","gl/156206_gl.png"],"rank_data":[0,1,2],"rank_result":["ours/156206_ours.png","ce/156206_ce.png","gl/156206_gl.png"],"rt":8446,"trial_type":"image-rank","trial_index":13,"time_elapsed":113820,"internal_node_id":"0.0-13.0"},{"src":["ours/059205_ours.png","ce/059205_ce.png","gl/059205_gl.png"],"rank_data":[0,2,1],"rank_result":["ours/059205_ours.png","gl/059205_gl.png","ce/059205_ce.png"],"rt":8595,"trial_type":"image-rank","trial_index":14,"time_elapsed":122416,"internal_node_id":"0.0-14.0"},{"src":["ce/037466_ce.png","gl/037466_gl.png","ours/037466_ours.png"],"rank_data":[1,2,0],"rank_result":["ours/037466_ours.png","ce/037466_ce.png","gl/037466_gl.png"],"rt":4687,"trial_type":"image-rank","trial_index":15,"time_elapsed":127103,"internal_node_id":"0.0-15.0"},{"src":["ours/088616_ours.png","gl/088616_gl.png","ce/088616_ce.png"],"rank_data":[0,2,1],"rank_result":["ours/088616_ours.png","ce/088616_ce.png","gl/088616_gl.png"],"rt":8838,"trial_type":"image-rank","trial_index":16,"time_elapsed":135941,"internal_node_id":"0.0-16.0"},{"src":["ce/075718_ce.png","ours/075718_ours.png","gl/075718_gl.png"],"rank_data":[1,0,2],"rank_result":["ours/075718_ours.png","ce/075718_ce.png","gl/075718_gl.png"],"rt":6114,"trial_type":"image-rank","trial_index":17,"time_elapsed":142056,"internal_node_id":"0.0-17.0"},{"src":["gl/114275_gl.png","ce/114275_ce.png","ours/114275_ours.png"],"rank_data":[2,1,0],"rank_result":["ours/114275_ours.png","ce/114275_ce.png","gl/114275_gl.png"],"rt":3861,"trial_type":"image-rank","trial_index":18,"time_elapsed":145918,"internal_node_id":"0.0-18.0"},{"src":["ce/080141_ce.png","ours/080141_ours.png","gl/080141_gl.png"],"rank_data":[2,0,1],"rank_result":["ours/080141_ours.png","gl/080141_gl.png","ce/080141_ce.png"],"rt":5713,"trial_type":"image-rank","trial_index":19,"time_elapsed":151631,"internal_node_id":"0.0-19.0"},{"src":["gl/032263_gl.png","ce/032263_ce.png","ours/032263_ours.png"],"rank_data":[1,2,0],"rank_result":["ours/032263_ours.png","gl/032263_gl.png","ce/032263_ce.png"],"rt":4030,"trial_type":"image-rank","trial_index":20,"time_elapsed":155662,"internal_node_id":"0.0-20.0"},{"src":["ce/011020_ce.png","gl/011020_gl.png","ours/011020_ours.png"],"rank_data":[2,1,0],"rank_result":["ours/011020_ours.png","gl/011020_gl.png","ce/011020_ce.png"],"rt":6827,"trial_type":"image-rank","trial_index":21,"time_elapsed":162490,"internal_node_id":"0.0-21.0"},{"src":["gl/010213_gl.png","ce/010213_ce.png","ours/010213_ours.png"],"rank_data":[2,1,0],"rank_result":["ours/010213_ours.png","ce/010213_ce.png","gl/010213_gl.png"],"rt":4333,"trial_type":"image-rank","trial_index":22,"time_elapsed":166823,"internal_node_id":"0.0-22.0"},{"src":["ours/198855_ours.png","ce/198855_ce.png","gl/198855_gl.png"],"rank_data":[0,2,1],"rank_result":["ours/198855_ours.png","gl/198855_gl.png","ce/198855_ce.png"],"rt":5831,"trial_type":"image-rank","trial_index":23,"time_elapsed":172656,"internal_node_id":"0.0-23.0"},{"src":["gl/016692_gl.png","ce/016692_ce.png","ours/016692_ours.png"],"rank_data":[2,1,0],"rank_result":["ours/016692_ours.png","ce/016692_ce.png","gl/016692_gl.png"],"rt":5351,"trial_type":"image-rank","trial_index":24,"time_elapsed":178007,"internal_node_id":"0.0-24.0"},{"src":["ce/168681_ce.png","ours/168681_ours.png","gl/168681_gl.png"],"rank_data":[2,0,1],"rank_result":["ours/168681_ours.png","gl/168681_gl.png","ce/168681_ce.png"],"rt":5816,"trial_type":"image-rank","trial_index":25,"time_elapsed":183823,"internal_node_id":"0.0-25.0"},{"src":["ce/030494_ce.png","ours/030494_ours.png","gl/030494_gl.png"],"rank_data":[1,0,2],"rank_result":["ours/030494_ours.png","ce/030494_ce.png","gl/030494_gl.png"],"rt":4960,"trial_type":"image-rank","trial_index":26,"time_elapsed":188783,"internal_node_id":"0.0-26.0"},{"src":["ce/017260_ce.png","ours/017260_ours.png","gl/017260_gl.png"],"rank_data":[2,0,1],"rank_result":["ours/017260_ours.png","gl/017260_gl.png","ce/017260_ce.png"],"rt":4102,"trial_type":"image-rank","trial_index":27,"time_elapsed":192886,"internal_node_id":"0.0-27.0"},{"src":["gl/052638_gl.png","ours/052638_ours.png","ce/052638_ce.png"],"rank_data":[2,0,1],"rank_result":["ours/052638_ours.png","ce/052638_ce.png","gl/052638_gl.png"],"rt":4825,"trial_type":"image-rank","trial_index":28,"time_elapsed":197712,"internal_node_id":"0.0-28.0"},{"src":["ours/033386_ours.png","gl/033386_gl.png","ce/033386_ce.png"],"rank_data":[1,2,0],"rank_result":["ce/033386_ce.png","ours/033386_ours.png","gl/033386_gl.png"],"rt":6729,"trial_type":"image-rank","trial_index":29,"time_elapsed":204442,"internal_node_id":"0.0-29.0"},{"src":["ours/121287_ours.png","gl/121287_gl.png","ce/121287_ce.png"],"rank_data":[0,1,2],"rank_result":["ours/121287_ours.png","gl/121287_gl.png","ce/121287_ce.png"],"rt":7617,"trial_type":"image-rank","trial_index":30,"time_elapsed":212060,"internal_node_id":"0.0-30.0"},{"src":["ce/025464_ce.png","gl/025464_gl.png","ours/025464_ours.png"],"rank_data":[0,2,1],"rank_result":["ce/025464_ce.png","ours/025464_ours.png","gl/025464_gl.png"],"rt":5049,"trial_type":"image-rank","trial_index":31,"time_elapsed":217110,"internal_node_id":"0.0-31.0"},{"src":["gl/115940_gl.png","ce/115940_ce.png","ours/115940_ours.png"],"rank_data":[2,1,0],"rank_result":["ours/115940_ours.png","ce/115940_ce.png","gl/115940_gl.png"],"rt":7523,"trial_type":"image-rank","trial_index":32,"time_elapsed":224634,"internal_node_id":"0.0-32.0"},{"src":["ours/027423_ours.png","ce/027423_ce.png","gl/027423_gl.png"],"rank_data":[0,1,2],"rank_result":["ours/027423_ours.png","ce/027423_ce.png","gl/027423_gl.png"],"rt":4584,"trial_type":"image-rank","trial_index":33,"time_elapsed":229218,"internal_node_id":"0.0-33.0"},{"src":["ce/120589_ce.png","ours/120589_ours.png","gl/120589_gl.png"],"rank_data":[2,0,1],"rank_result":["ours/120589_ours.png","gl/120589_gl.png","ce/120589_ce.png"],"rt":4397,"trial_type":"image-rank","trial_index":34,"time_elapsed":233616,"internal_node_id":"0.0-34.0"},{"src":["ours/025572_ours.png","ce/025572_ce.png","gl/025572_gl.png"],"rank_data":[0,2,1],"rank_result":["ours/025572_ours.png","gl/025572_gl.png","ce/025572_ce.png"],"rt":5199,"trial_type":"image-rank","trial_index":35,"time_elapsed":238816,"internal_node_id":"0.0-35.0"},{"src":["ours/015684_ours.png","gl/015684_gl.png","ce/015684_ce.png"],"rank_data":[0,1,2],"rank_result":["ours/015684_ours.png","gl/015684_gl.png","ce/015684_ce.png"],"rt":4509,"trial_type":"image-rank","trial_index":36,"time_elapsed":243326,"internal_node_id":"0.0-36.0"},{"src":["ours/183586_ours.png","gl/183586_gl.png","ce/183586_ce.png"],"rank_data":[0,2,1],"rank_result":["ours/183586_ours.png","ce/183586_ce.png","gl/183586_gl.png"],"rt":5271,"trial_type":"image-rank","trial_index":37,"time_elapsed":248598,"internal_node_id":"0.0-37.0"},{"src":["ce/115191_ce.png","ours/115191_ours.png","gl/115191_gl.png"],"rank_data":[1,0,2],"rank_result":["ours/115191_ours.png","ce/115191_ce.png","gl/115191_gl.png"],"rt":6049,"trial_type":"image-rank","trial_index":38,"time_elapsed":254648,"internal_node_id":"0.0-38.0"},{"src":["gl/187118_gl.png","ce/187118_ce.png","ours/187118_ours.png"],"rank_data":[1,2,0],"rank_result":["ours/187118_ours.png","gl/187118_gl.png","ce/187118_ce.png"],"rt":4621,"trial_type":"image-rank","trial_index":39,"time_elapsed":259270,"internal_node_id":"0.0-39.0"},{"src":["ce/037575_ce.png","gl/037575_gl.png","ours/037575_ours.png"],"rank_data":[2,1,0],"rank_result":["ours/037575_ours.png","gl/037575_gl.png","ce/037575_ce.png"],"rt":3653,"trial_type":"image-rank","trial_index":40,"time_elapsed":262924,"internal_node_id":"0.0-40.0"},{"src":["ours/158222_ours.png","ce/158222_ce.png","gl/158222_gl.png"],"rank_data":[0,1,2],"rank_result":["ours/158222_ours.png","ce/158222_ce.png","gl/158222_gl.png"],"rt":6465,"trial_type":"image-rank","trial_index":41,"time_elapsed":269390,"internal_node_id":"0.0-41.0"},{"src":["ce/160350_ce.png","gl/160350_gl.png","ours/160350_ours.png"],"rank_data":[2,1,0],"rank_result":["ours/160350_ours.png","gl/160350_gl.png","ce/160350_ce.png"],"rt":5399,"trial_type":"image-rank","trial_index":42,"time_elapsed":274790,"internal_node_id":"0.0-42.0"},{"src":["ours/031876_ours.png","gl/031876_gl.png","ce/031876_ce.png"],"rank_data":[0,1,2],"rank_result":["ours/031876_ours.png","gl/031876_gl.png","ce/031876_ce.png"],"rt":5693,"trial_type":"image-rank","trial_index":43,"time_elapsed":280483,"internal_node_id":"0.0-43.0"},{"src":["ours/001131_ours.png","ce/001131_ce.png","gl/001131_gl.png"],"rank_data":[0,2,1],"rank_result":["ours/001131_ours.png","gl/001131_gl.png","ce/001131_ce.png"],"rt":12041,"trial_type":"image-rank","trial_index":44,"time_elapsed":292526,"internal_node_id":"0.0-44.0"},{"src":["ours/122637_ours.png","ce/122637_ce.png","gl/122637_gl.png"],"rank_data":[0,2,1],"rank_result":["ours/122637_ours.png","gl/122637_gl.png","ce/122637_ce.png"],"rt":4895,"trial_type":"image-rank","trial_index":45,"time_elapsed":297422,"internal_node_id":"0.0-45.0"},{"src":["gl/008209_gl.png","ours/008209_ours.png","ce/008209_ce.png"],"rank_data":[1,0,2],"rank_result":["ours/008209_ours.png","gl/008209_gl.png","ce/008209_ce.png"],"rt":5759,"trial_type":"image-rank","trial_index":46,"time_elapsed":303182,"internal_node_id":"0.0-46.0"},{"src":["ce/014002_ce.png","ours/014002_ours.png","gl/014002_gl.png"],"rank_data":[0,1,2],"rank_result":["ce/014002_ce.png","ours/014002_ours.png","gl/014002_gl.png"],"rt":7731,"trial_type":"image-rank","trial_index":47,"time_elapsed":310913,"internal_node_id":"0.0-47.0"},{"src":["ce/096983_ce.png","gl/096983_gl.png","ours/096983_ours.png"],"rank_data":[1,2,0],"rank_result":["ours/096983_ours.png","ce/096983_ce.png","gl/096983_gl.png"],"rt":6482,"trial_type":"image-rank","trial_index":48,"time_elapsed":317396,"internal_node_id":"0.0-48.0"},{"src":["gl/028746_gl.png","ours/028746_ours.png","ce/028746_ce.png"],"rank_data":[1,0,2],"rank_result":["ours/028746_ours.png","gl/028746_gl.png","ce/028746_ce.png"],"rt":7917,"trial_type":"image-rank","trial_index":49,"time_elapsed":325314,"internal_node_id":"0.0-49.0"},{"src":["ce/187085_ce.png","gl/187085_gl.png","ours/187085_ours.png"],"rank_data":[2,1,0],"rank_result":["ours/187085_ours.png","gl/187085_gl.png","ce/187085_ce.png"],"rt":4751,"trial_type":"image-rank","trial_index":50,"time_elapsed":330066,"internal_node_id":"0.0-50.0"},{"src":["ours/062980_ours.png","ce/062980_ce.png","gl/062980_gl.png"],"rank_data":[0,1,2],"rank_result":["ours/062980_ours.png","ce/062980_ce.png","gl/062980_gl.png"],"rt":9187,"trial_type":"image-rank","trial_index":51,"time_elapsed":339254,"internal_node_id":"0.0-51.0"},{"src":["gl/089400_gl.png","ce/089400_ce.png","ours/089400_ours.png"],"rank_data":[2,1,0],"rank_result":["ours/089400_ours.png","ce/089400_ce.png","gl/089400_gl.png"],"rt":4552,"trial_type":"image-rank","trial_index":52,"time_elapsed":343806,"internal_node_id":"0.0-52.0"},{"src":["gl/041326_gl.png","ce/041326_ce.png","ours/041326_ours.png"],"rank_data":[2,1,0],"rank_result":["ours/041326_ours.png","ce/041326_ce.png","gl/041326_gl.png"],"rt":4797,"trial_type":"image-rank","trial_index":53,"time_elapsed":348604,"internal_node_id":"0.0-53.0"},{"src":["ce/012925_ce.png","gl/012925_gl.png","ours/012925_ours.png"],"rank_data":[1,2,0],"rank_result":["ours/012925_ours.png","ce/012925_ce.png","gl/012925_gl.png"],"rt":4951,"trial_type":"image-rank","trial_index":54,"time_elapsed":353556,"internal_node_id":"0.0-54.0"},{"src":["ce/127415_ce.png","ours/127415_ours.png","gl/127415_gl.png"],"rank_data":[2,0,1],"rank_result":["ours/127415_ours.png","gl/127415_gl.png","ce/127415_ce.png"],"rt":6703,"trial_type":"image-rank","trial_index":55,"time_elapsed":360260,"internal_node_id":"0.0-55.0"},{"src":["ce/069118_ce.png","ours/069118_ours.png","gl/069118_gl.png"],"rank_data":[2,0,1],"rank_result":["ours/069118_ours.png","gl/069118_gl.png","ce/069118_ce.png"],"rt":5513,"trial_type":"image-rank","trial_index":56,"time_elapsed":365774,"internal_node_id":"0.0-56.0"},{"src":["ce/019784_ce.png","gl/019784_gl.png","ours/019784_ours.png"],"rank_data":[1,2,0],"rank_result":["ours/019784_ours.png","ce/019784_ce.png","gl/019784_gl.png"],"rt":4648,"trial_type":"image-rank","trial_index":57,"time_elapsed":370422,"internal_node_id":"0.0-57.0"},{"src":["gl/051437_gl.png","ours/051437_ours.png","ce/051437_ce.png"],"rank_data":[2,0,1],"rank_result":["ours/051437_ours.png","ce/051437_ce.png","gl/051437_gl.png"],"rt":14117,"trial_type":"image-rank","trial_index":58,"time_elapsed":384540,"internal_node_id":"0.0-58.0"},{"src":["ce/158500_ce.png","gl/158500_gl.png","ours/158500_ours.png"],"rank_data":[1,2,0],"rank_result":["ours/158500_ours.png","ce/158500_ce.png","gl/158500_gl.png"],"rt":5648,"trial_type":"image-rank","trial_index":59,"time_elapsed":390188,"internal_node_id":"0.0-59.0"},{"src":["ours/052309_ours.png","ce/052309_ce.png","gl/052309_gl.png"],"rank_data":[0,1,2],"rank_result":["ours/052309_ours.png","ce/052309_ce.png","gl/052309_gl.png"],"rt":4373,"trial_type":"image-rank","trial_index":60,"time_elapsed":394562,"internal_node_id":"0.0-60.0"},{"src":["gl/111232_gl.png","ce/111232_ce.png","ours/111232_ours.png"],"rank_data":[1,2,0],"rank_result":["ours/111232_ours.png","gl/111232_gl.png","ce/111232_ce.png"],"rt":5983,"trial_type":"image-rank","trial_index":61,"time_elapsed":400546,"internal_node_id":"0.0-61.0"},{"src":["ours/046290_ours.png","ce/046290_ce.png","gl/046290_gl.png"],"rank_data":[0,1,2],"rank_result":["ours/046290_ours.png","ce/046290_ce.png","gl/046290_gl.png"],"rt":4693,"trial_type":"image-rank","trial_index":62,"time_elapsed":405240,"internal_node_id":"0.0-62.0"},{"src":["ours/181758_ours.png","gl/181758_gl.png","ce/181758_ce.png"],"rank_data":[2,1,0],"rank_result":["ce/181758_ce.png","gl/181758_gl.png","ours/181758_ours.png"],"rt":5280,"trial_type":"image-rank","trial_index":63,"time_elapsed":410520,"internal_node_id":"0.0-63.0"},{"src":["ce/125269_ce.png","gl/125269_gl.png","ours/125269_ours.png"],"rank_data":[2,1,0],"rank_result":["ours/125269_ours.png","gl/125269_gl.png","ce/125269_ce.png"],"rt":4253,"trial_type":"image-rank","trial_index":64,"time_elapsed":414774,"internal_node_id":"0.0-64.0"},{"src":["gl/015094_gl.png","ours/015094_ours.png","ce/015094_ce.png"],"rank_data":[2,0,1],"rank_result":["ours/015094_ours.png","ce/015094_ce.png","gl/015094_gl.png"],"rt":3717,"trial_type":"image-rank","trial_index":65,"time_elapsed":418492,"internal_node_id":"0.0-65.0"},{"src":["ours/024043_ours.png","ce/024043_ce.png","gl/024043_gl.png"],"rank_data":[0,2,1],"rank_result":["ours/024043_ours.png","gl/024043_gl.png","ce/024043_ce.png"],"rt":6326,"trial_type":"image-rank","trial_index":66,"time_elapsed":424820,"internal_node_id":"0.0-66.0"},{"src":["gl/120316_gl.png","ce/120316_ce.png","ours/120316_ours.png"],"rank_data":[1,2,0],"rank_result":["ours/120316_ours.png","gl/120316_gl.png","ce/120316_ce.png"],"rt":4213,"trial_type":"image-rank","trial_index":67,"time_elapsed":429034,"internal_node_id":"0.0-67.0"},{"src":["ce/071849_ce.png","ours/071849_ours.png","gl/071849_gl.png"],"rank_data":[2,1,0],"rank_result":["gl/071849_gl.png","ours/071849_ours.png","ce/071849_ce.png"],"rt":6961,"trial_type":"image-rank","trial_index":68,"time_elapsed":435996,"internal_node_id":"0.0-68.0"},{"src":["gl/144011_gl.png","ours/144011_ours.png","ce/144011_ce.png"],"rank_data":[1,0,2],"rank_result":["ours/144011_ours.png","gl/144011_gl.png","ce/144011_ce.png"],"rt":4967,"trial_type":"image-rank","trial_index":69,"time_elapsed":440963,"internal_node_id":"0.0-69.0"},{"src":["gl/138637_gl.png","ce/138637_ce.png","ours/138637_ours.png"],"rank_data":[1,2,0],"rank_result":["ours/138637_ours.png","gl/138637_gl.png","ce/138637_ce.png"],"rt":4533,"trial_type":"image-rank","trial_index":70,"time_elapsed":445498,"internal_node_id":"0.0-70.0"},{"src":["ce/075614_ce.png","ours/075614_ours.png","gl/075614_gl.png"],"rank_data":[1,2,0],"rank_result":["gl/075614_gl.png","ce/075614_ce.png","ours/075614_ours.png"],"rt":9853,"trial_type":"image-rank","trial_index":71,"time_elapsed":455352,"internal_node_id":"0.0-71.0"},{"src":["ours/127712_ours.png","ce/127712_ce.png","gl/127712_gl.png"],"rank_data":[0,1,2],"rank_result":["ours/127712_ours.png","ce/127712_ce.png","gl/127712_gl.png"],"rt":14445,"trial_type":"image-rank","trial_index":72,"time_elapsed":469798,"internal_node_id":"0.0-72.0"},{"src":["ce/168058_ce.png","gl/168058_gl.png","ours/168058_ours.png"],"rank_data":[2,0,1],"rank_result":["gl/168058_gl.png","ours/168058_ours.png","ce/168058_ce.png"],"rt":6025,"trial_type":"image-rank","trial_index":73,"time_elapsed":475824,"internal_node_id":"0.0-73.0"},{"src":["gl/005192_gl.png","ours/005192_ours.png","ce/005192_ce.png"],"rank_data":[0,1,2],"rank_result":["gl/005192_gl.png","ours/005192_ours.png","ce/005192_ce.png"],"rt":4125,"trial_type":"image-rank","trial_index":74,"time_elapsed":479950,"internal_node_id":"0.0-74.0"},{"src":["ce/055180_ce.png","gl/055180_gl.png","ours/055180_ours.png"],"rank_data":[1,2,0],"rank_result":["ours/055180_ours.png","ce/055180_ce.png","gl/055180_gl.png"],"rt":11602,"trial_type":"image-rank","trial_index":75,"time_elapsed":491552,"internal_node_id":"0.0-75.0"},{"src":["gl/151314_gl.png","ce/151314_ce.png","ours/151314_ours.png"],"rank_data":[2,1,0],"rank_result":["ours/151314_ours.png","ce/151314_ce.png","gl/151314_gl.png"],"rt":3806,"trial_type":"image-rank","trial_index":76,"time_elapsed":495370,"internal_node_id":"0.0-76.0"},{"src":["ours/024363_ours.png","ce/024363_ce.png","gl/024363_gl.png"],"rank_data":[1,2,0],"rank_result":["gl/024363_gl.png","ours/024363_ours.png","ce/024363_ce.png"],"rt":6099,"trial_type":"image-rank","trial_index":77,"time_elapsed":501470,"internal_node_id":"0.0-77.0"},{"src":["gl/076665_gl.png","ce/076665_ce.png","ours/076665_ours.png"],"rank_data":[1,2,0],"rank_result":["ours/076665_ours.png","gl/076665_gl.png","ce/076665_ce.png"],"rt":3802,"trial_type":"image-rank","trial_index":78,"time_elapsed":505272,"internal_node_id":"0.0-78.0"},{"src":["ours/046794_ours.png","ce/046794_ce.png","gl/046794_gl.png"],"rank_data":[0,2,1],"rank_result":["ours/046794_ours.png","gl/046794_gl.png","ce/046794_ce.png"],"rt":4786,"trial_type":"image-rank","trial_index":79,"time_elapsed":510058,"internal_node_id":"0.0-79.0"},{"src":["ce/054622_ce.png","ours/054622_ours.png","gl/054622_gl.png"],"rank_data":[2,0,1],"rank_result":["ours/054622_ours.png","gl/054622_gl.png","ce/054622_ce.png"],"rt":6658,"trial_type":"image-rank","trial_index":80,"time_elapsed":516716,"internal_node_id":"0.0-80.0"},{"src":["gl/002429_gl.png","ours/002429_ours.png","ce/002429_ce.png"],"rank_data":[1,0,2],"rank_result":["ours/002429_ours.png","gl/002429_gl.png","ce/002429_ce.png"],"rt":6015,"trial_type":"image-rank","trial_index":81,"time_elapsed":522732,"internal_node_id":"0.0-81.0"},{"src":["ce/173479_ce.png","ours/173479_ours.png","gl/173479_gl.png"],"rank_data":[2,0,1],"rank_result":["ours/173479_ours.png","gl/173479_gl.png","ce/173479_ce.png"],"rt":5688,"trial_type":"image-rank","trial_index":82,"time_elapsed":528420,"internal_node_id":"0.0-82.0"},{"src":["ce/047691_ce.png","ours/047691_ours.png","gl/047691_gl.png"],"rank_data":[1,0,2],"rank_result":["ours/047691_ours.png","ce/047691_ce.png","gl/047691_gl.png"],"rt":6498,"trial_type":"image-rank","trial_index":83,"time_elapsed":534918,"internal_node_id":"0.0-83.0"},{"src":["gl/158523_gl.png","ours/158523_ours.png","ce/158523_ce.png"],"rank_data":[2,0,1],"rank_result":["ours/158523_ours.png","ce/158523_ce.png","gl/158523_gl.png"],"rt":3798,"trial_type":"image-rank","trial_index":84,"time_elapsed":538716,"internal_node_id":"0.0-84.0"},{"src":["ours/057820_ours.png","gl/057820_gl.png","ce/057820_ce.png"],"rank_data":[0,1,2],"rank_result":["ours/057820_ours.png","gl/057820_gl.png","ce/057820_ce.png"],"rt":7312,"trial_type":"image-rank","trial_index":85,"time_elapsed":546028,"internal_node_id":"0.0-85.0"},{"src":["gl/006912_gl.png","ce/006912_ce.png","ours/006912_ours.png"],"rank_data":[2,1,0],"rank_result":["ours/006912_ours.png","ce/006912_ce.png","gl/006912_gl.png"],"rt":5250,"trial_type":"image-rank","trial_index":86,"time_elapsed":551278,"internal_node_id":"0.0-86.0"},{"src":["ce/104730_ce.png","ours/104730_ours.png","gl/104730_gl.png"],"rank_data":[0,2,1],"rank_result":["ce/104730_ce.png","gl/104730_gl.png","ours/104730_ours.png"],"rt":5187,"trial_type":"image-rank","trial_index":87,"time_elapsed":556466,"internal_node_id":"0.0-87.0"},{"src":["ce/009728_ce.png","ours/009728_ours.png","gl/009728_gl.png"],"rank_data":[2,0,1],"rank_result":["ours/009728_ours.png","gl/009728_gl.png","ce/009728_ce.png"],"rt":7102,"trial_type":"image-rank","trial_index":88,"time_elapsed":563568,"internal_node_id":"0.0-88.0"},{"src":["gl/160614_gl.png","ours/160614_ours.png","ce/160614_ce.png"],"rank_data":[1,0,2],"rank_result":["ours/160614_ours.png","gl/160614_gl.png","ce/160614_ce.png"],"rt":3742,"trial_type":"image-rank","trial_index":89,"time_elapsed":567310,"internal_node_id":"0.0-89.0"},{"src":["ours/094962_ours.png","ce/094962_ce.png","gl/094962_gl.png"],"rank_data":[0,1,2],"rank_result":["ours/094962_ours.png","ce/094962_ce.png","gl/094962_gl.png"],"rt":4420,"trial_type":"image-rank","trial_index":90,"time_elapsed":571731,"internal_node_id":"0.0-90.0"},{"src":["ce/010772_ce.png","ours/010772_ours.png","gl/010772_gl.png"],"rank_data":[2,0,1],"rank_result":["ours/010772_ours.png","gl/010772_gl.png","ce/010772_ce.png"],"rt":4582,"trial_type":"image-rank","trial_index":91,"time_elapsed":576313,"internal_node_id":"0.0-91.0"},{"src":["ours/124523_ours.png","gl/124523_gl.png","ce/124523_ce.png"],"rank_data":[0,1,2],"rank_result":["ours/124523_ours.png","gl/124523_gl.png","ce/124523_ce.png"],"rt":4576,"trial_type":"image-rank","trial_index":92,"time_elapsed":580889,"internal_node_id":"0.0-92.0"},{"src":["ce/197637_ce.png","gl/197637_gl.png","ours/197637_ours.png"],"rank_data":[2,1,0],"rank_result":["ours/197637_ours.png","gl/197637_gl.png","ce/197637_ce.png"],"rt":4166,"trial_type":"image-rank","trial_index":93,"time_elapsed":585055,"internal_node_id":"0.0-93.0"},{"src":["ce/114741_ce.png","ours/114741_ours.png","gl/114741_gl.png"],"rank_data":[2,0,1],"rank_result":["ours/114741_ours.png","gl/114741_gl.png","ce/114741_ce.png"],"rt":5128,"trial_type":"image-rank","trial_index":94,"time_elapsed":590183,"internal_node_id":"0.0-94.0"},{"src":["ce/038677_ce.png","ours/038677_ours.png","gl/038677_gl.png"],"rank_data":[1,0,2],"rank_result":["ours/038677_ours.png","ce/038677_ce.png","gl/038677_gl.png"],"rt":9023,"trial_type":"image-rank","trial_index":95,"time_elapsed":599207,"internal_node_id":"0.0-95.0"},{"src":["gl/111259_gl.png","ours/111259_ours.png","ce/111259_ce.png"],"rank_data":[2,0,1],"rank_result":["ours/111259_ours.png","ce/111259_ce.png","gl/111259_gl.png"],"rt":4645,"trial_type":"image-rank","trial_index":96,"time_elapsed":603853,"internal_node_id":"0.0-96.0"},{"src":["ours/082696_ours.png","ce/082696_ce.png","gl/082696_gl.png"],"rank_data":[0,1,2],"rank_result":["ours/082696_ours.png","ce/082696_ce.png","gl/082696_gl.png"],"rt":7996,"trial_type":"image-rank","trial_index":97,"time_elapsed":611849,"internal_node_id":"0.0-97.0"},{"src":["ce/077129_ce.png","ours/077129_ours.png","gl/077129_gl.png"],"rank_data":[2,0,1],"rank_result":["ours/077129_ours.png","gl/077129_gl.png","ce/077129_ce.png"],"rt":10488,"trial_type":"image-rank","trial_index":98,"time_elapsed":622337,"internal_node_id":"0.0-98.0"},{"src":["gl/108712_gl.png","ce/108712_ce.png","ours/108712_ours.png"],"rank_data":[2,1,0],"rank_result":["ours/108712_ours.png","ce/108712_ce.png","gl/108712_gl.png"],"rt":5192,"trial_type":"image-rank","trial_index":99,"time_elapsed":627529,"internal_node_id":"0.0-99.0"},{"src":["gl/015026_gl.png","ce/015026_ce.png","ours/015026_ours.png"],"rank_data":[2,1,0],"rank_result":["ours/015026_ours.png","ce/015026_ce.png","gl/015026_gl.png"],"rt":5729,"trial_type":"image-rank","trial_index":100,"time_elapsed":633258,"internal_node_id":"0.0-100.0"},{"src":["gl/038617_gl.png","ours/038617_ours.png","ce/038617_ce.png"],"rank_data":[1,0,2],"rank_result":["ours/038617_ours.png","gl/038617_gl.png","ce/038617_ce.png"],"rt":8150,"trial_type":"image-rank","trial_index":101,"time_elapsed":641408,"internal_node_id":"0.0-101.0"},{"src":["ours/013408_ours.png","gl/013408_gl.png","ce/013408_ce.png"],"rank_data":[0,2,1],"rank_result":["ours/013408_ours.png","ce/013408_ce.png","gl/013408_gl.png"],"rt":5132,"trial_type":"image-rank","trial_index":102,"time_elapsed":646540,"internal_node_id":"0.0-102.0"},{"rt":7089,"responses":"{\"Q0\":\"Yiqing Liu\"}","trial_type":"survey-text","trial_index":103,"time_elapsed":653631,"internal_node_id":"0.0-103.0"},{"rt":27883,"responses":"{\"Q0\":\"28\"}","trial_type":"survey-text","trial_index":104,"time_elapsed":681514,"internal_node_id":"0.0-104.0"},{"rt":2518,"stimulus":"<div style=\"font-size:15px;\">You have reached the end of the experiment! Press any key to finish.</div>","key_press":13,"trial_type":"html-keyboard-response","trial_index":105,"time_elapsed":684032,"internal_node_id":"0.0-105.0"}]